SpectrumFile,BASELINE
Version,1.000000
Location,
Customer,
SampleInfo,
GPSData,51.118519,-114.185438,1148.948730,193002,121211
SystemTime,2011,12,12,19,31,24,286
Pipe km,0.000000
Pre-Dilution Factor,1.000000
Freeform Info,
Concentration,0.000000
CalibrationName,paper-distance
Unique Calibration File ID,20111207-0014320750-TESTBOX2-7E963C-00018940
CalibrationWavelength,780.000000
CalibrationType,2,-0.131013,0.002732
CalibrationRSquared,0.999340
CalibrationConcentrations [ppm],3,0.000000,1.000000,10.000000
CalibrationCounts,3,0.000000,468.910000,3701.410000
CalibrationWarnLow,0.000000
CalibrationWarnHigh,10.000000
CalibrationErrorLow,0.000000
CalibrationErrorHigh,0.000000
Spectrometer Name,USB4000
Spectrometer Serial,USB4H02759
IntegrationTime [ms],50.000000
AveragedSpectra,50
BoxcarWidth,100
WavelengthRange [nm],346.775360,1043.690197
IntensityRange [counts],-102.139028,246.056211
WavelengthCount,3648
Wavelength [nm],Intensity [counts]
346.775,-102.139
346.991,-102.139
347.206,-102.139
347.421,-100.992
347.637,-96.4047
347.852,63.8284
348.067,37.2457
348.282,61.4527
348.498,34.7472
348.713,51.1719
348.928,66.245
349.143,56.4966
349.358,30.4874
349.574,40.3996
349.789,23.9339
350.004,90.2472
350.219,49.2468
350.434,48.7553
350.649,42.9391
350.864,35.8121
351.079,54.08
351.295,65.8763
351.51,30.4465
351.725,37.1638
351.94,10.2535
352.155,43.3487
352.37,56.4147
352.585,35.5664
352.8,88.5269
353.015,25.859
353.23,84.6357
353.445,24.6712
353.66,34.4605
353.875,59.0361
354.09,71.1601
354.305,37
354.52,48.1819
354.735,27.1697
354.949,64.0741
355.164,75.7066
355.379,21.3535
355.594,49.4926
355.809,78.0822
356.024,64.5247
356.239,66.9003
356.453,75.5427
356.668,52.3188
356.883,65.9992
357.098,84.4309
357.313,37
357.527,55.3498
357.742,36.8771
357.957,30.6922
358.172,51.9501
358.386,56.7833
358.601,49.5745
358.816,78.9424
359.03,11.8509
359.245,45.069
359.46,71.5287
359.674,48.5915
359.889,13.5302
360.104,62.0261
360.318,65.6306
360.533,66.9822
360.748,32.5764
360.962,52.9741
361.177,18.1587
361.391,61.5756
361.606,47.9361
361.82,63.7464
362.035,54.8583
362.25,34.0099
362.464,37
362.679,93.8106
362.893,54.1619
363.108,65.7534
363.322,68.0062
363.536,48.8372
363.751,53.3018
363.965,52.5236
364.18,51.9092
364.394,64.9343
364.609,37
364.823,50.7214
365.037,83.0383
365.252,46.6254
365.466,26.8011
365.68,41.4236
365.895,44.5365
366.109,53.138
366.323,34.2147
366.538,48.1409
366.752,28.1937
366.966,46.8302
367.181,47.4446
367.395,32.945
367.609,23.3605
367.823,91.3531
368.038,65.7125
368.252,48.7115
368.466,49.4651
368.68,50.3582
368.894,51.1332
369.109,51.7451
369.323,52.5702
369.537,52.4205
369.751,52.4386
369.965,52.4459
370.179,52.5517
370.393,52.6456
370.607,52.5774
370.822,52.7987
371.036,52.9686
371.25,52.9588
371.464,53.1422
371.678,53.0218
371.892,53.0876
372.106,52.9694
372.32,53.2466
372.534,53.3876
372.748,53.5404
372.962,53.4986
373.176,53.5757
373.39,53.6784
373.604,54.0107
373.818,54.1395
374.031,54.0527
374.245,54.1905
374.459,54.0603
374.673,54.1232
374.887,54.056
375.101,54.2082
375.315,54.3663
375.529,54.3688
375.742,54.22
375.956,54.2318
376.17,54.1854
376.384,54.3058
376.598,54.1075
376.811,53.9724
377.025,54.2818
377.239,54.4265
377.453,54.4248
377.666,54.5088
377.88,54.3883
378.094,54.6673
378.307,54.7071
378.521,54.7578
378.735,54.4796
378.948,54.5387
379.162,54.586
379.376,54.6708
379.589,54.9807
379.803,54.9707
380.016,54.7851
380.23,55.0339
380.444,55.03
380.657,55.2532
380.871,55.3528
381.084,55.2522
381.298,55.1213
381.511,55.159
381.725,55.3608
381.938,55.4504
382.152,55.3869
382.365,55.4246
382.579,55.4366
382.792,55.5768
383.006,55.5134
383.219,55.5745
383.433,55.5992
383.646,55.6404
383.859,55.6397
384.073,55.7555
384.286,55.4796
384.5,55.4908
384.713,55.5095
384.926,55.4282
385.14,55.6866
385.353,55.6618
385.566,55.685
385.779,55.6267
385.993,55.5823
386.206,55.7121
386.419,55.6891
386.633,55.3628
386.846,55.6208
387.059,55.7801
387.272,55.8219
387.485,56.01
387.699,55.8743
387.912,55.9839
388.125,56.0102
388.338,56.4084
388.551,56.5435
388.764,56.5643
388.978,56.7057
389.191,56.7783
389.404,56.7298
389.617,56.5745
389.83,56.54
390.043,56.6965
390.256,56.5052
390.469,56.6523
390.682,56.5227
390.895,56.5677
391.108,56.3646
391.321,56.3593
391.534,56.1531
391.747,56.1569
391.96,55.8052
392.173,55.8847
392.386,56.2091
392.599,56.2596
392.812,56.6607
393.025,56.7836
393.238,56.7693
393.451,56.6955
393.663,56.4811
393.876,56.7825
394.089,56.4783
394.302,56.6664
394.515,56.7261
394.728,56.6853
394.941,56.6713
395.153,56.5386
395.366,56.5021
395.579,56.5845
395.792,56.4632
396.004,56.6307
396.217,56.549
396.43,56.7077
396.643,56.9299
396.855,56.7956
397.068,56.9066
397.281,56.9708
397.493,56.9256
397.706,56.8445
397.919,56.8714
398.131,57.0886
398.344,57.0955
398.557,56.9969
398.769,56.6499
398.982,56.8787
399.194,56.8247
399.407,56.969
399.619,57.0721
399.832,57.1542
400.045,57.2716
400.257,57.8656
400.47,58.0596
400.682,58.4733
400.895,58.655
401.107,58.8927
401.319,59.0534
401.532,58.8896
401.744,58.9821
401.957,59.159
402.169,58.8861
402.382,58.9132
402.594,58.8957
402.806,59.095
403.019,59.3145
403.231,59.2768
403.444,59.1877
403.656,59.2148
403.868,59.4653
404.081,59.6589
404.293,59.8759
404.505,59.8023
404.717,59.8524
404.93,60.1646
405.142,60.0495
405.354,60.1663
405.566,60.4691
405.779,60.5455
405.991,60.5333
406.203,60.6975
406.415,60.5871
406.627,60.6979
406.84,60.6922
407.052,61.1395
407.264,60.8999
407.476,60.9121
407.688,61.2357
407.9,61.3586
408.112,61.5591
408.324,61.8525
408.537,61.9469
408.749,62.3351
408.961,62.5529
409.173,62.8386
409.385,62.8209
409.597,62.61
409.809,62.6228
410.021,62.7023
410.233,62.8647
410.445,62.8056
410.657,63.205
410.869,63.3501
411.081,63.3069
411.292,63.4762
411.504,63.517
411.716,63.7305
411.928,63.9612
412.14,64.0374
412.352,64.164
412.564,64.3747
412.776,64.4201
412.988,64.5561
413.199,64.39
413.411,64.4216
413.623,64.2991
413.835,64.3339
414.047,64.5236
414.258,64.7869
414.47,64.9245
414.682,64.8593
414.894,65.0608
415.105,64.8856
415.317,64.8409
415.529,64.7943
415.74,64.7977
415.952,65.0017
416.164,65.0408
416.375,65.0541
416.587,65.1812
416.799,65.4087
417.01,65.5124
417.222,65.6942
417.433,66.0518
417.645,65.9933
417.857,66.1103
418.068,66.1685
418.28,66.3371
418.491,66.5555
418.703,66.8651
418.914,67.1956
419.126,67.5467
419.337,67.9163
419.549,67.8795
419.76,67.8621
419.972,67.952
420.183,68.1322
420.394,68.1128
420.606,68.2455
420.817,68.0337
421.029,68.1533
421.24,68.2208
421.451,68.3914
421.663,68.7679
421.874,68.9385
422.085,69.0573
422.297,69.008
422.508,69.2277
422.719,69.8798
422.931,69.9048
423.142,70.0291
423.353,70.2659
423.565,70.5644
423.776,70.725
423.987,71.1401
424.198,71.4168
424.409,71.3304
424.621,71.5365
424.832,71.7085
425.043,71.9497
425.254,72.2479
425.465,72.4062
425.676,72.7591
425.888,73.0719
426.099,73.0919
426.31,73.238
426.521,73.4795
426.732,73.6855
426.943,73.938
427.154,74.1939
427.365,74.2318
427.576,74.4366
427.787,74.3594
427.998,74.4994
428.209,74.7584
428.42,75.0879
428.631,75.4231
428.842,75.5224
429.053,75.5711
429.264,76.0328
429.475,76.1396
429.686,76.3786
429.897,76.6613
430.108,76.6727
430.319,77.2793
430.529,77.4735
430.74,77.637
430.951,77.8725
431.162,78.0643
431.373,78.2098
431.584,78.4706
431.794,78.8586
432.005,78.9974
432.216,79.3092
432.427,79.441
432.637,79.7556
432.848,80.3277
433.059,80.3878
433.27,80.4385
433.48,80.8736
433.691,81.2432
433.902,81.716
434.112,81.8617
434.323,82.1584
434.534,82.5413
434.744,82.7538
434.955,82.6654
435.166,82.7595
435.376,82.7294
435.587,83.1188
435.797,83.3415
436.008,83.4491
436.218,84.0109
436.429,84.3659
436.64,84.8134
436.85,84.9014
437.061,85.1301
437.271,85.6642
437.482,85.9181
437.692,86.4332
437.902,86.6686
438.113,86.8461
438.323,87.132
438.534,87.163
438.744,87.2987
438.955,87.6887
439.165,87.9683
439.375,88.0704
439.586,87.9938
439.796,88.1941
440.006,88.351
440.217,88.8611
440.427,89.086
440.637,89.2533
440.848,89.2876
441.058,89.6101
441.268,90.0858
441.479,90.2571
441.689,90.6606
441.899,90.9583
442.109,91.0541
442.319,91.4505
442.53,91.6392
442.74,91.5585
442.95,92.0011
443.16,92.0779
443.37,92.5097
443.58,92.6454
443.791,93.15
444.001,93.4365
444.211,93.7222
444.421,94.0869
444.631,94.739
444.841,95.1892
445.051,95.46
445.261,95.5022
445.471,96.7359
445.681,97.209
445.891,97.7158
446.101,98.0223
446.311,98.2194
446.521,98.3041
446.731,98.512
446.941,98.975
447.151,99.5347
447.361,99.6275
447.571,99.7974
447.781,100.312
447.991,100.393
448.201,100.74
448.41,101.378
448.62,101.588
448.83,101.933
449.04,102.012
449.25,102.471
449.46,102.601
449.669,102.823
449.879,103.147
450.089,103.315
450.299,103.877
450.508,104.02
450.718,104.324
450.928,104.386
451.138,104.658
451.347,105.077
451.557,105.466
451.767,105.811
451.976,106.225
452.186,106.788
452.396,106.989
452.605,107.27
452.815,107.782
453.025,107.899
453.234,108.353
453.444,108.641
453.653,108.888
453.863,108.999
454.072,109.224
454.282,109.588
454.491,109.88
454.701,110.337
454.911,110.59
455.12,110.854
455.329,111.143
455.539,111.73
455.748,112.096
455.958,112.364
456.167,112.805
456.377,113.207
456.586,113.336
456.795,113.533
457.005,113.945
457.214,114.53
457.424,114.973
457.633,115.344
457.842,115.708
458.052,116.15
458.261,116.448
458.47,116.844
458.679,117.138
458.889,117.435
459.098,117.729
459.307,118.06
459.517,118.431
459.726,118.681
459.935,119.193
460.144,119.485
460.353,119.831
460.563,120.242
460.772,120.523
460.981,120.914
461.19,121.305
461.399,121.512
461.608,121.818
461.817,122.455
462.026,123.009
462.236,123.389
462.445,123.736
462.654,124.33
462.863,124.801
463.072,125.345
463.281,125.728
463.49,126.008
463.699,126.593
463.908,126.942
464.117,127.153
464.326,127.627
464.535,128.259
464.744,128.78
464.952,128.733
465.161,128.919
465.37,129.317
465.579,129.547
465.788,129.664
465.997,130.199
466.206,130.531
466.415,131.109
466.623,131.703
466.832,131.979
467.041,132.57
467.25,133.035
467.459,133.291
467.667,133.722
467.876,134.286
468.085,134.775
468.294,135.179
468.502,135.639
468.711,136.311
468.92,136.756
469.128,137.454
469.337,137.788
469.546,138.265
469.754,138.885
469.963,139.508
470.172,140.299
470.38,140.806
470.589,141.198
470.798,141.68
471.006,142.172
471.215,142.815
471.423,143.359
471.632,143.763
471.84,144.226
472.049,144.807
472.257,145.352
472.466,145.832
472.674,146.352
472.883,147.021
473.091,147.201
473.3,147.762
473.508,148.433
473.716,149.11
473.925,149.586
474.133,150.099
474.342,150.674
474.55,151.389
474.758,152.13
474.967,152.398
475.175,153.225
475.383,154.11
475.592,154.563
475.8,154.908
476.008,155.294
476.217,155.943
476.425,156.612
476.633,157.009
476.841,157.37
477.05,158.014
477.258,158.838
477.466,159.389
477.674,159.69
477.882,160.417
478.091,161.114
478.299,161.655
478.507,162.073
478.715,162.941
478.923,163.45
479.131,164.282
479.339,164.678
479.547,165.466
479.755,166.051
479.963,166.602
480.171,167.245
480.38,167.766
480.588,168.617
480.796,169.345
481.004,169.508
481.212,170.033
481.42,170.784
481.627,171.742
481.835,172.513
482.043,173.287
482.251,173.814
482.459,174.52
482.667,175.095
482.875,175.781
483.083,176.756
483.291,177.31
483.499,177.985
483.706,178.489
483.914,179.105
484.122,179.735
484.33,180.308
484.538,181.071
484.745,181.671
484.953,182.094
485.161,182.49
485.369,183.25
485.576,184.296
485.784,184.734
485.992,185.6
486.199,186.285
486.407,186.905
486.615,187.471
486.822,187.901
487.03,188.568
487.238,189.207
487.445,188.674
487.653,189.174
487.861,189.882
488.068,190.355
488.276,190.989
488.483,191.791
488.691,192.424
488.898,193.085
489.106,193.486
489.313,194.352
489.521,195.175
489.728,195.509
489.936,196.24
490.143,196.966
490.351,197.353
490.558,198.076
490.766,198.658
490.973,199.441
491.18,199.904
491.388,200.468
491.595,201.296
491.802,202.115
492.01,202.713
492.217,203.052
492.424,203.888
492.632,204.396
492.839,205.346
493.046,205.866
493.254,206.4
493.461,206.815
493.668,207.542
493.875,208.25
494.083,208.432
494.29,209.022
494.497,209.762
494.704,210.103
494.911,210.713
495.119,211.114
495.326,211.794
495.533,212.526
495.74,213.07
495.947,213.498
496.154,213.946
496.361,214.203
496.568,214.336
496.775,214.733
496.982,215.287
497.19,215.902
497.397,216.31
497.604,216.832
497.811,217.359
498.018,217.964
498.225,218.481
498.432,218.985
498.638,219.459
498.845,220.266
499.052,220.538
499.259,220.926
499.466,221.461
499.673,221.763
499.88,222.48
500.087,222.77
500.294,223.253
500.501,223.734
500.707,224.084
500.914,224.504
501.121,224.979
501.328,225.175
501.535,225.869
501.741,226.511
501.948,226.91
502.155,227.534
502.362,227.747
502.568,228.227
502.775,228.731
502.982,229.112
503.188,229.422
503.395,229.784
503.602,229.958
503.808,230.081
504.015,230.34
504.222,230.518
504.428,230.836
504.635,231.6
504.841,231.687
505.048,232.125
505.254,232.551
505.461,233.045
505.668,233.198
505.874,233.758
506.081,234.339
506.287,234.293
506.494,234.413
506.7,234.923
506.907,235.561
507.113,235.865
507.319,236.409
507.526,237.129
507.732,237.534
507.939,237.895
508.145,238.016
508.351,238.116
508.558,238.347
508.764,238.437
508.97,238.582
509.177,238.906
509.383,239.193
509.589,239.269
509.796,239.23
510.002,239.718
510.208,239.845
510.414,239.866
510.621,240.005
510.827,239.965
511.033,240.328
511.239,240.645
511.445,240.689
511.652,240.803
511.858,241.008
512.064,241.167
512.27,241.391
512.476,241.43
512.682,241.762
512.888,242.017
513.095,242.069
513.301,242.186
513.507,242.289
513.713,242.37
513.919,242.658
514.125,242.59
514.331,242.964
514.537,243.145
514.743,243.434
514.949,243.594
515.155,243.763
515.361,243.741
515.567,243.866
515.773,243.875
515.978,243.976
516.184,243.993
516.39,243.698
516.596,243.784
516.802,243.732
517.008,243.598
517.214,243.661
517.419,243.941
517.625,244.066
517.831,244.116
518.037,244.024
518.243,244.205
518.448,244.507
518.654,244.629
518.86,244.567
519.066,244.904
519.271,244.941
519.477,244.912
519.683,244.941
519.888,245.087
520.094,245.104
520.3,244.847
520.505,245.055
520.711,245.032
520.917,245.337
521.122,245.393
521.328,245.329
521.533,245.313
521.739,245.606
521.944,245.668
522.15,245.585
522.356,245.648
522.561,245.93
522.767,245.787
522.972,245.667
523.177,245.711
523.383,246.056
523.588,246.015
523.794,245.895
523.999,245.593
524.205,245.797
524.41,245.812
524.615,245.568
524.821,245.562
525.026,245.462
525.232,245.411
525.437,245.485
525.642,245.557
525.847,245.698
526.053,245.654
526.258,245.702
526.463,245.657
526.669,245.685
526.874,245.299
527.079,244.758
527.284,244.781
527.49,244.565
527.695,244.162
527.9,243.982
528.105,243.627
528.31,243.53
528.515,243.343
528.721,243.29
528.926,242.991
529.131,242.732
529.336,242.671
529.541,242.654
529.746,242.525
529.951,242.265
530.156,242.215
530.361,241.857
530.566,241.685
530.771,241.492
530.976,241.23
531.181,241.176
531.386,240.918
531.591,240.593
531.796,240.508
532.001,240.292
532.206,239.929
532.411,239.714
532.616,239.493
532.821,239.204
533.025,238.721
533.23,238.229
533.435,237.98
533.64,237.674
533.845,237.215
534.05,236.996
534.254,236.628
534.459,236.358
534.664,235.871
534.869,235.822
535.073,235.482
535.278,235.064
535.483,234.818
535.688,234.563
535.892,234.229
536.097,234.019
536.302,233.518
536.506,233.412
536.711,233.233
536.916,232.748
537.12,232.532
537.325,232.49
537.529,232.198
537.734,232.068
537.938,232.652
538.143,232.762
538.348,232.436
538.552,231.941
538.757,231.834
538.961,231.828
539.166,231.585
539.37,231.398
539.575,230.945
539.779,230.56
539.983,230.376
540.188,229.829
540.392,229.47
540.597,229.344
540.801,228.978
541.005,228.702
541.21,228.083
541.414,227.969
541.618,227.705
541.823,227.391
542.027,226.99
542.231,226.801
542.436,226.378
542.64,226.261
542.844,225.565
543.048,225.018
543.253,224.737
543.457,224.153
543.661,223.812
543.865,223.511
544.069,222.903
544.274,222.544
544.478,222.247
544.682,222.165
544.886,221.777
545.09,221.699
545.294,221.31
545.498,221.245
545.702,220.757
545.907,219.983
546.111,219.634
546.315,219.298
546.519,218.966
546.723,218.343
546.927,218.199
547.131,217.841
547.335,217.182
547.539,217.149
547.743,216.91
547.947,216.705
548.15,216.069
548.354,215.649
548.558,215.224
548.762,214.584
548.966,213.978
549.17,213.582
549.374,213.091
549.578,212.67
549.781,212.314
549.985,211.996
550.189,211.823
550.393,211.681
550.597,211.257
550.8,210.801
551.004,210.597
551.208,210.379
551.412,210.079
551.615,209.735
551.819,209.509
552.023,209.248
552.226,208.714
552.43,208.198
552.634,207.642
552.837,207.291
553.041,206.612
553.244,206.126
553.448,205.924
553.652,205.569
553.855,205.121
554.059,204.886
554.262,204.562
554.466,204.358
554.669,203.994
554.873,203.731
555.076,203.337
555.28,202.94
555.483,202.489
555.687,201.882
555.89,201.357
556.094,200.779
556.297,200.259
556.5,199.812
556.704,199.255
556.907,199.004
557.111,198.662
557.314,198.112
557.517,197.974
557.721,197.564
557.924,197.264
558.127,196.749
558.33,196.27
558.534,195.984
558.737,195.598
558.94,194.955
559.144,194.651
559.347,194.27
559.55,193.698
559.753,193.274
559.956,192.789
560.159,192.417
560.363,192.429
560.566,192.125
560.769,191.837
560.972,191.326
561.175,190.988
561.378,190.798
561.581,190.23
561.784,189.942
561.987,189.478
562.19,188.912
562.394,188.566
562.597,188.739
562.8,188.268
563.003,187.992
563.205,187.545
563.408,187.347
563.611,187.058
563.814,187.037
564.017,186.896
564.22,186.331
564.423,185.699
564.626,185.438
564.829,185.15
565.032,185.146
565.235,184.618
565.437,184.439
565.64,183.982
565.843,183.907
566.046,183.702
566.249,183.49
566.451,182.979
566.654,182.839
566.857,182.634
567.06,182.314
567.262,182.265
567.465,182.397
567.668,182.327
567.87,181.999
568.073,181.893
568.276,181.503
568.478,181.414
568.681,181.471
568.884,181.246
569.086,181.369
569.289,181.191
569.491,181.331
569.694,181.144
569.896,181.228
570.099,181.405
570.301,181.074
570.504,180.969
570.706,180.767
570.909,180.656
571.111,180.589
571.314,180.842
571.516,180.743
571.719,180.656
571.921,180.592
572.124,180.556
572.326,180.491
572.528,180.498
572.731,180.521
572.933,180.58
573.135,180.835
573.338,180.731
573.54,180.59
573.742,180.553
573.945,180.902
574.147,180.985
574.349,180.968
574.551,180.921
574.754,181.134
574.956,181.347
575.158,181.172
575.36,181.521
575.562,181.779
575.765,181.583
575.967,181.656
576.169,182.081
576.371,182.125
576.573,182.336
576.775,182.145
576.977,182.172
577.179,182.294
577.382,182.176
577.584,182.224
577.786,182.368
577.988,182.708
578.19,182.624
578.392,182.945
578.594,183.179
578.796,182.872
578.998,182.771
579.2,182.846
579.401,183.133
579.603,183.319
579.805,183.332
580.007,183.329
580.209,182.98
580.411,183.573
580.613,183.912
580.815,184.178
581.016,184.33
581.218,184.632
581.42,184.728
581.622,185.085
581.824,185.534
582.025,186.107
582.227,186.457
582.429,186.506
582.631,186.625
582.832,186.946
583.034,187.205
583.236,187.379
583.437,187.516
583.639,187.923
583.841,188.051
584.042,188.427
584.244,188.666
584.446,189.057
584.647,189.315
584.849,189.525
585.05,189.627
585.252,189.745
585.453,189.765
585.655,190.199
585.856,190.23
586.058,190.519
586.259,190.786
586.461,191.036
586.662,191.503
586.864,191.899
587.065,192.364
587.267,192.525
587.468,192.956
587.67,193.466
587.871,193.679
588.072,193.962
588.274,194.205
588.475,194.638
588.676,194.725
588.878,195.039
589.079,195.504
589.28,195.744
589.481,196.005
589.683,196.272
589.884,196.702
590.085,197.244
590.286,197.749
590.488,198.07
590.689,198.39
590.89,198.612
591.091,198.651
591.292,199.143
591.494,199.408
591.695,199.617
591.896,199.914
592.097,200.257
592.298,200.409
592.499,200.747
592.7,201.159
592.901,201.578
593.102,202.196
593.303,202.788
593.504,203.161
593.705,203.781
593.906,204.156
594.107,204.585
594.308,204.71
594.509,204.87
594.71,204.973
594.911,205.307
595.112,205.46
595.313,205.84
595.514,206.162
595.715,206.468
595.915,206.829
596.116,207.018
596.317,207.682
596.518,208.121
596.719,208.507
596.92,209.036
597.12,209.437
597.321,209.898
597.522,210.43
597.723,210.692
597.923,211.183
598.124,211.284
598.325,211.864
598.525,211.848
598.726,212.233
598.927,212.645
599.127,212.849
599.328,213.204
599.529,213.701
599.729,213.89
599.93,214.245
600.13,214.532
600.331,214.623
600.531,214.969
600.732,215.114
600.933,215.095
601.133,215.305
601.334,215.543
601.534,215.638
601.734,215.734
601.935,215.92
602.135,216.138
602.336,216.251
602.536,216.346
602.737,216.598
602.937,216.724
603.137,216.384
603.338,216.365
603.538,216.418
603.738,216.73
603.939,216.971
604.139,217.037
604.339,217.116
604.54,217.147
604.74,217.546
604.94,217.644
605.14,217.732
605.341,217.707
605.541,217.79
605.741,217.723
605.941,217.526
606.141,217.767
606.342,217.748
606.542,217.878
606.742,217.854
606.942,218.05
607.142,218.213
607.342,218.438
607.542,218.397
607.742,218.193
607.942,217.807
608.142,217.76
608.343,217.998
608.543,218.075
608.743,218.185
608.943,218.059
609.143,218.065
609.342,218.192
609.542,218.146
609.742,218.204
609.942,217.983
610.142,217.822
610.342,217.745
610.542,217.477
610.742,217.675
610.942,217.571
611.142,217.667
611.341,217.697
611.541,217.489
611.741,217.046
611.941,217.03
612.141,216.883
612.34,216.78
612.54,216.677
612.74,216.854
612.94,216.622
613.139,216.616
613.339,216.303
613.539,216.194
613.738,216.046
613.938,216.127
614.138,216.118
614.337,215.801
614.537,215.773
614.736,215.547
614.936,215.747
615.136,215.435
615.335,215.096
615.535,215.069
615.734,215.003
615.934,215.026
616.133,214.929
616.333,215.03
616.532,214.933
616.732,215.062
616.931,214.846
617.131,215.211
617.33,215.355
617.529,215.455
617.729,215.399
617.928,215.385
618.128,215.247
618.327,214.896
618.526,214.685
618.726,214.538
618.925,214.457
619.124,214.309
619.324,214.268
619.523,214.296
619.722,214.251
619.921,214.232
620.121,214.005
620.32,214.262
620.519,214.378
620.718,213.992
620.917,213.716
621.117,213.476
621.316,213.412
621.515,213.208
621.714,213.215
621.913,212.843
622.112,212.788
622.311,212.362
622.51,212.279
622.709,212.158
622.909,212.243
623.108,212.291
623.307,211.812
623.506,211.879
623.705,211.835
623.904,211.481
624.103,211.375
624.301,211.137
624.5,211.147
624.699,211.182
624.898,210.956
625.097,210.921
625.296,210.918
625.495,210.921
625.694,210.711
625.893,210.715
626.091,210.74
626.29,210.957
626.489,210.561
626.688,210.419
626.887,210.098
627.085,209.971
627.284,209.399
627.483,209.394
627.682,209.093
627.88,208.308
628.079,208.224
628.278,208.262
628.476,208.08
628.675,207.753
628.874,207.623
629.072,207.359
629.271,207.245
629.47,207.223
629.668,207.108
629.867,206.929
630.065,206.529
630.264,206.327
630.462,206.03
630.661,205.833
630.859,205.79
631.058,205.867
631.256,205.912
631.455,206.164
631.653,206.229
631.852,206.141
632.05,205.746
632.249,205.561
632.447,205.667
632.645,205.613
632.844,205.348
633.042,205.219
633.24,204.994
633.439,204.8
633.637,204.583
633.835,204.239
634.034,204.126
634.232,203.759
634.43,203.93
634.628,204.045
634.827,204.014
635.025,203.888
635.223,203.947
635.421,203.586
635.62,203.248
635.818,203.094
636.016,202.742
636.214,202.662
636.412,202.208
636.61,201.891
636.808,201.759
637.006,201.339
637.205,201.244
637.403,201.341
637.601,200.721
637.799,200.504
637.997,200.33
638.195,200.187
638.393,199.675
638.591,199.598
638.789,199.467
638.987,199.458
639.184,199.257
639.382,199.054
639.58,198.745
639.778,198.436
639.976,198.185
640.174,198.16
640.372,198.509
640.57,198.221
640.767,198.079
640.965,197.822
641.163,197.661
641.361,197.703
641.559,197.843
641.756,197.932
641.954,197.652
642.152,197.781
642.35,197.777
642.547,197.453
642.745,197.364
642.943,197.53
643.14,197.621
643.338,197.667
643.536,197.85
643.733,197.631
643.931,197.338
644.128,197.198
644.326,197.005
644.524,196.965
644.721,196.568
644.919,196.72
645.116,196.732
645.314,196.743
645.511,196.505
645.709,196.484
645.906,196.719
646.104,196.817
646.301,197.025
646.498,196.684
646.696,196.661
646.893,196.46
647.091,196.075
647.288,195.714
647.485,195.76
647.683,195.744
647.88,195.814
648.077,195.827
648.275,195.755
648.472,195.666
648.669,195.602
648.867,195.639
649.064,195.609
649.261,195.75
649.458,195.633
649.655,195.557
649.853,195.486
650.05,195.468
650.247,195.689
650.444,195.828
650.641,195.615
650.838,195.792
651.036,195.798
651.233,195.592
651.43,195.434
651.627,195.671
651.824,195.515
652.021,195.548
652.218,195.621
652.415,195.584
652.612,195.193
652.809,195.407
653.006,195.148
653.203,195.279
653.4,195.227
653.597,195.38
653.794,195.462
653.991,195.564
654.187,195.582
654.384,195.326
654.581,195.361
654.778,195.107
654.975,195.103
655.172,195.13
655.369,194.895
655.565,194.511
655.762,194.209
655.959,194.195
656.156,193.963
656.352,193.436
656.549,193.436
656.746,193.227
656.943,192.822
657.139,192.695
657.336,192.707
657.533,192.617
657.729,192.374
657.926,192.281
658.122,192.564
658.319,192.805
658.516,192.775
658.712,192.816
658.909,192.777
659.105,192.631
659.302,192.529
659.498,192.508
659.695,192.145
659.891,191.865
660.088,191.667
660.284,191.797
660.481,191.755
660.677,191.888
660.874,191.805
661.07,191.746
661.266,191.688
661.463,191.435
661.659,191.344
661.856,191.021
662.052,190.941
662.248,190.503
662.444,190.435
662.641,190.2
662.837,190.204
663.033,190.346
663.23,189.984
663.426,189.612
663.622,189.589
663.818,189.368
664.014,189.221
664.211,188.975
664.407,188.752
664.603,188.586
664.799,188.513
664.995,188.312
665.191,188.078
665.387,187.95
665.584,187.592
665.78,187.243
665.976,186.778
666.172,186.605
666.368,186.431
666.564,186.237
666.76,186.16
666.956,186.194
667.152,185.925
667.348,186.022
667.544,186.069
667.74,185.769
667.936,185.29
668.131,184.84
668.327,184.405
668.523,184.445
668.719,184.381
668.915,183.876
669.111,183.656
669.307,183.466
669.502,183.386
669.698,183.27
669.894,183.018
670.09,182.788
670.285,182.427
670.481,182.169
670.677,181.74
670.873,181.189
671.068,180.351
671.264,180.081
671.46,179.85
671.655,179.418
671.851,179.149
672.047,178.785
672.242,178.23
672.438,177.945
672.633,177.768
672.829,177.236
673.025,176.961
673.22,176.631
673.416,176.261
673.611,176.202
673.807,176.066
674.002,175.564
674.198,175.333
674.393,175.159
674.589,174.8
674.784,174.452
674.979,174.327
675.175,174.048
675.37,173.685
675.566,173.624
675.761,173.28
675.956,172.967
676.152,172.854
676.347,172.608
676.542,172.658
676.738,172.423
676.933,171.823
677.128,171.766
677.323,171.8
677.519,171.489
677.714,171.503
677.909,171.402
678.104,171.441
678.299,171.38
678.494,171.019
678.69,170.733
678.885,170.53
679.08,170.328
679.275,170.35
679.47,169.911
679.665,169.597
679.86,168.987
680.055,168.806
680.25,168.542
680.445,168.416
680.64,168.243
680.835,167.728
681.03,167.38
681.225,167.181
681.42,167.179
681.615,166.647
681.81,166.147
682.005,166.169
682.2,165.921
682.395,165.516
682.59,165.297
682.785,165.028
682.979,164.482
683.174,164.345
683.369,163.854
683.564,163.572
683.759,163.137
683.953,162.932
684.148,162.761
684.343,162.179
684.538,161.982
684.732,161.367
684.927,161.248
685.122,161.222
685.316,160.895
685.511,160.303
685.706,159.771
685.9,159.859
686.095,159.597
686.29,159.152
686.484,158.999
686.679,158.643
686.873,158.454
687.068,158.054
687.262,157.783
687.457,157.346
687.651,157.032
687.846,156.647
688.04,156.613
688.235,156.159
688.429,155.759
688.624,155.145
688.818,154.81
689.013,154.38
689.207,154.051
689.401,153.766
689.596,153.275
689.79,153.111
689.984,152.876
690.179,152.425
690.373,152.17
690.567,151.753
690.762,151.623
690.956,151.21
691.15,150.945
691.344,150.421
691.538,150.091
691.733,149.731
691.927,149.572
692.121,148.984
692.315,148.733
692.509,148.347
692.703,147.933
692.898,147.437
693.092,147.227
693.286,146.76
693.48,146.36
693.674,146.198
693.868,145.871
694.062,145.729
694.256,145.339
694.45,144.901
694.644,144.977
694.838,144.76
695.032,144.632
695.226,144.209
695.42,143.762
695.614,143.777
695.808,143.497
696.002,143.263
696.195,143.049
696.389,142.488
696.583,142.073
696.777,141.898
696.971,141.475
697.165,141.231
697.358,140.543
697.552,139.876
697.746,139.382
697.94,139.078
698.133,138.931
698.327,138.569
698.521,138.355
698.715,137.677
698.908,137.294
699.102,137.216
699.296,136.949
699.489,136.441
699.683,135.869
699.876,135.5
700.07,135.162
700.264,134.814
700.457,134.51
700.651,134.202
700.844,134.059
701.038,133.759
701.231,133.515
701.425,133.218
701.618,132.993
701.812,132.643
702.005,132.104
702.199,131.834
702.392,131.764
702.586,131.816
702.779,131.477
702.972,131.287
703.166,131.193
703.359,131.123
703.552,130.552
703.746,130.307
703.939,130.099
704.132,129.807
704.326,129.582
704.519,129.298
704.712,129.086
704.905,129.024
705.099,128.795
705.292,128.544
705.485,128.576
705.678,128.214
705.871,127.808
706.064,127.585
706.258,127.292
706.451,126.844
706.644,126.664
706.837,126.718
707.03,126.721
707.223,126.686
707.416,126.652
707.609,126.097
707.802,126.064
707.995,125.912
708.188,125.687
708.381,125.396
708.574,125.329
708.767,124.911
708.96,124.508
709.153,124.476
709.346,124.494
709.539,124.072
709.732,123.847
709.924,123.861
710.117,123.881
710.31,123.412
710.503,123.196
710.696,123.242
710.889,123.135
711.081,123.064
711.274,123.026
711.467,122.944
711.66,122.703
711.852,122.588
712.045,122.406
712.238,122.243
712.43,122.259
712.623,121.741
712.816,121.332
713.008,121.418
713.201,121.25
713.394,120.888
713.586,120.767
713.779,120.605
713.971,120.629
714.164,120.524
714.356,120.266
714.549,120.237
714.741,120.198
714.934,120.18
715.126,120.065
715.319,119.894
715.511,119.478
715.704,119.098
715.896,119.143
716.088,118.96
716.281,118.546
716.473,118.528
716.666,118.171
716.858,117.98
717.05,117.613
717.243,117.39
717.435,117.352
717.627,117.141
717.819,117.043
718.012,117.066
718.204,117.048
718.396,117.255
718.588,117.227
718.781,117.138
718.973,117.135
719.165,117.02
719.357,116.834
719.549,116.497
719.741,116.308
719.934,116.087
720.126,115.897
720.318,115.714
720.51,115.501
720.702,115.532
720.894,115.407
721.086,115.626
721.278,115.447
721.47,115.318
721.662,115.268
721.854,115.672
722.046,115.5
722.238,115.558
722.43,115.516
722.622,115.576
722.814,115.177
723.005,115.124
723.197,115.027
723.389,114.776
723.581,115.107
723.773,114.855
723.965,114.862
724.156,114.75
724.348,114.698
724.54,114.664
724.732,114.399
724.923,114.21
725.115,114.359
725.307,114.316
725.499,114.437
725.69,114.15
725.882,114.355
726.074,114.223
726.265,114.468
726.457,114.253
726.648,114.32
726.84,114.089
727.032,114.196
727.223,114.135
727.415,114.172
727.606,114.426
727.798,114.496
727.989,114.312
728.181,114.224
728.372,114.351
728.564,114.159
728.755,114.299
728.947,114.148
729.138,114.008
729.329,114.148
729.521,114.185
729.712,114.115
729.904,114.119
730.095,114.316
730.286,114.428
730.478,114.4
730.669,114.464
730.86,114.849
731.051,114.841
731.243,114.756
731.434,115.026
731.625,115.455
731.816,115.38
732.008,115.652
732.199,115.97
732.39,116.158
732.581,116.125
732.772,115.987
732.963,116.182
733.154,116.303
733.346,116.213
733.537,116.208
733.728,116.039
733.919,116.18
734.11,116.498
734.301,116.346
734.492,116.413
734.683,116.4
734.874,116.494
735.065,116.67
735.256,116.722
735.447,116.909
735.638,117.329
735.829,117.36
736.019,117.444
736.21,117.81
736.401,117.992
736.592,118.135
736.783,118.192
736.974,118.57
737.164,118.433
737.355,118.969
737.546,119.124
737.737,119.214
737.928,118.942
738.118,119.018
738.309,119.507
738.5,119.702
738.69,119.659
738.881,119.756
739.072,119.73
739.262,119.83
739.453,119.864
739.644,119.805
739.834,119.688
740.025,119.952
740.215,120.107
740.406,120.326
740.596,120.366
740.787,120.229
740.978,120.234
741.168,120.31
741.358,120.358
741.549,120.57
741.739,120.264
741.93,120.205
742.12,120.27
742.311,120.233
742.501,120.106
742.691,119.958
742.882,120.205
743.072,120.037
743.263,119.953
743.453,119.751
743.643,119.724
743.833,119.812
744.024,119.438
744.214,119.597
744.404,119.534
744.594,119.505
744.785,119.533
744.975,119.629
745.165,119.689
745.355,119.416
745.545,119.286
745.736,119.201
745.926,119.142
746.116,119.301
746.306,119.207
746.496,119.208
746.686,119.215
746.876,119.202
747.066,119.053
747.256,119.503
747.446,119.749
747.636,119.74
747.826,119.842
748.016,120.031
748.206,120.304
748.396,120.369
748.586,120.423
748.776,120.822
748.966,121.004
749.156,121.212
749.346,121.432
749.535,121.652
749.725,121.9
749.915,122.12
750.105,122.334
750.295,122.728
750.484,122.933
750.674,123.405
750.864,123.496
751.054,124.055
751.243,124.326
751.433,124.483
751.623,124.644
751.812,124.87
752.002,125.2
752.192,125.514
752.381,125.571
752.571,125.798
752.761,126.418
752.95,126.533
753.14,126.593
753.329,126.869
753.519,127.031
753.708,127.692
753.898,128.091
754.087,128.322
754.277,128.51
754.466,129.078
754.656,129.312
754.845,129.562
755.035,129.865
755.224,130.336
755.413,130.906
755.603,131.108
755.792,131.292
755.982,131.776
756.171,131.985
756.36,132.281
756.549,132.348
756.739,132.687
756.928,133.16
757.117,133.511
757.307,133.873
757.496,134.201
757.685,134.412
757.874,134.987
758.063,135.427
758.253,135.619
758.442,135.772
758.631,135.921
758.82,136.581
759.009,136.792
759.198,137.092
759.387,137.153
759.576,137.57
759.765,137.93
759.954,138.228
760.143,138.002
760.332,138.106
760.521,138.531
760.71,138.657
760.899,138.931
761.088,139.385
761.277,139.765
761.466,139.935
761.655,140.163
761.844,140.417
762.033,141.051
762.222,141.048
762.411,141.113
762.599,141.556
762.788,141.708
762.977,141.909
763.166,142.364
763.355,142.742
763.543,143.148
763.732,143.827
763.921,144.253
764.109,144.493
764.298,144.64
764.487,144.781
764.675,145.215
764.864,145.442
765.053,145.698
765.241,145.824
765.43,145.724
765.619,145.922
765.807,146.118
765.996,145.97
766.184,146.357
766.373,146.805
766.561,146.873
766.75,147.058
766.938,147
767.127,147.484
767.315,147.834
767.504,148.068
767.692,148.266
767.881,148.603
768.069,149.022
768.257,148.973
768.446,149.027
768.634,149.451
768.822,149.35
769.011,149.385
769.199,149.572
769.387,149.885
769.576,149.86
769.764,149.626
769.952,149.565
770.14,149.561
770.328,149.487
770.517,149.641
770.705,149.835
770.893,150.006
771.081,150.069
771.269,149.981
771.457,150.068
771.646,150.25
771.834,150.602
772.022,150.811
772.21,150.684
772.398,150.803
772.586,150.744
772.774,151.044
772.962,150.89
773.15,151.052
773.338,151.021
773.526,150.84
773.714,150.783
773.902,151.12
774.09,151.574
774.278,151.559
774.465,151.599
774.653,151.573
774.841,151.563
775.029,151.329
775.217,151.441
775.405,151.23
775.592,151.229
775.78,151.369
775.968,151.656
776.156,151.614
776.343,151.44
776.531,151.387
776.719,151.521
776.907,151.597
777.094,151.628
777.282,151.573
777.47,151.642
777.657,151.92
777.845,152.063
778.032,152.261
778.22,152.253
778.408,152.221
778.595,152.194
778.783,152.516
778.97,152.552
779.158,152.363
779.345,152.375
779.533,152.546
779.72,152.867
779.908,152.841
780.095,152.983
780.282,153.062
780.47,153.13
780.657,153.345
780.845,153.077
781.032,153.415
781.219,153.579
781.407,153.828
781.594,153.81
781.781,153.782
781.969,153.877
782.156,153.935
782.343,154.089
782.53,154.339
782.718,154.588
782.905,154.872
783.092,154.899
783.279,155.084
783.466,155.166
783.653,155.468
783.841,155.865
784.028,155.757
784.215,155.891
784.402,156.117
784.589,156.195
784.776,156.3
784.963,156.361
785.15,156.202
785.337,156.277
785.524,156.131
785.711,155.955
785.898,156.293
786.085,156.049
786.272,156.009
786.459,155.951
786.646,156.01
786.833,155.853
787.02,155.682
787.206,155.641
787.393,155.517
787.58,155.242
787.767,155.076
787.954,154.818
788.14,154.605
788.327,154.512
788.514,154.069
788.701,153.847
788.887,153.34
789.074,153.337
789.261,152.999
789.448,152.631
789.634,152.605
789.821,152.162
790.008,151.804
790.194,151.653
790.381,151.736
790.567,151.325
790.754,151.144
790.94,151.126
791.127,150.749
791.314,150.624
791.5,149.85
791.687,149.434
791.873,149.385
792.059,149.278
792.246,148.705
792.432,148.494
792.619,148.245
792.805,148.028
792.992,147.404
793.178,146.78
793.364,146.719
793.551,146.505
793.737,146.074
793.923,145.925
794.11,145.815
794.296,145.779
794.482,145.201
794.668,144.596
794.855,144.276
795.041,143.921
795.227,143.655
795.413,143.516
795.599,143.107
795.786,142.817
795.972,142.486
796.158,142.206
796.344,142.007
796.53,141.8
796.716,141.197
796.902,140.965
797.088,140.628
797.274,140.037
797.46,139.69
797.646,139.224
797.832,139.186
798.018,139.045
798.204,138.655
798.39,138.321
798.576,137.831
798.762,137.619
798.948,137.098
799.134,137.126
799.32,136.638
799.506,136.379
799.692,136.024
799.877,135.8
800.063,135.691
800.249,135.389
800.435,135.178
800.621,134.953
800.806,134.569
800.992,133.989
801.178,133.331
801.363,132.461
801.549,132.054
801.735,131.715
801.92,131.56
802.106,131.232
802.292,130.813
802.477,130.33
802.663,129.93
802.849,129.54
803.034,129.841
803.22,129.676
803.405,129.144
803.591,129.258
803.776,128.879
803.962,128.582
804.147,128.416
804.333,128.078
804.518,127.903
804.703,127.407
804.889,126.906
805.074,126.721
805.26,126.399
805.445,125.978
805.63,125.378
805.816,125.717
806.001,125.427
806.186,125.09
806.372,125.101
806.557,124.785
806.742,124.542
806.927,124.497
807.113,124.438
807.298,124.193
807.483,124.038
807.668,123.798
807.853,123.628
808.039,123.377
808.224,123.113
808.409,122.857
808.594,122.567
808.779,122.48
808.964,122.15
809.149,121.777
809.334,121.395
809.519,121.077
809.704,120.828
809.889,120.661
810.074,120.472
810.259,120.368
810.444,120.382
810.629,120.08
810.814,119.854
810.999,119.804
811.184,119.531
811.369,119.091
811.554,118.554
811.738,118.376
811.923,117.969
812.108,117.597
812.293,117.196
812.478,117.179
812.662,116.939
812.847,116.658
813.032,116.522
813.217,116.115
813.401,115.755
813.586,115.642
813.771,115.422
813.955,114.979
814.14,114.858
814.325,114.47
814.509,114.221
814.694,114.073
814.878,113.966
815.063,113.587
815.248,113.252
815.432,112.674
815.617,112.604
815.801,112.438
815.986,112.291
816.17,111.878
816.355,111.76
816.539,111.557
816.723,111.489
816.908,111.021
817.092,110.823
817.277,110.567
817.461,110.547
817.645,110.398
817.83,110.113
818.014,109.905
818.198,109.82
818.383,109.605
818.567,109.468
818.751,109.043
818.935,108.826
819.12,108.865
819.304,108.733
819.488,108.591
819.672,108.309
819.856,107.8
820.041,107.49
820.225,106.883
820.409,106.621
820.593,106.455
820.777,106.413
820.961,106.088
821.145,105.558
821.329,105.474
821.513,105.236
821.697,104.86
821.881,104.56
822.065,104.334
822.249,104.165
822.433,103.877
822.617,103.757
822.801,103.647
822.985,103.758
823.169,103.334
823.353,103.142
823.536,103.151
823.72,103.111
823.904,102.657
824.088,102.61
824.272,102.265
824.456,101.957
824.639,101.751
824.823,101.581
825.007,101.123
825.19,101.106
825.374,100.922
825.558,100.892
825.742,100.709
825.925,100.602
826.109,100.56
826.292,100.129
826.476,100.03
826.66,100.039
826.843,99.7473
827.027,99.7609
827.21,99.786
827.394,99.5735
827.577,99.0689
827.761,99.0351
827.944,98.7692
828.128,98.5483
828.311,98.426
828.495,98.0551
828.678,97.8389
828.862,97.6622
829.045,97.512
829.228,97.2217
829.412,97.0134
829.595,96.8724
829.778,96.8722
829.962,96.6965
830.145,96.6401
830.328,96.7251
830.512,96.3566
830.695,95.9815
830.878,95.8125
831.061,95.4612
831.244,95.0545
831.428,94.5891
831.611,94.4619
831.794,94.4132
831.977,94.1487
832.16,93.9527
832.343,93.6496
832.526,93.6176
832.709,93.2922
832.893,92.9874
833.076,92.8349
833.259,92.6528
833.442,92.5207
833.625,91.9569
833.808,91.8855
833.991,91.5654
834.174,91.4755
834.356,91.6051
834.539,91.2389
834.722,91.2836
834.905,90.8573
835.088,90.7152
835.271,90.4289
835.454,90.5593
835.637,90.4299
835.819,90.25
836.002,90.0797
836.185,89.8223
836.368,90.0148
836.551,89.7171
836.733,89.2503
836.916,88.9925
837.099,88.5024
837.281,88.3172
837.464,88.2522
837.647,88.0514
837.829,87.8401
838.012,87.7152
838.195,87.6141
838.377,87.3771
838.56,87.2431
838.742,86.8708
838.925,86.7507
839.107,86.3874
839.29,86.2001
839.472,85.9646
839.655,85.7714
839.837,85.624
840.02,85.2069
840.202,84.9192
840.385,84.8768
840.567,84.6137
840.749,84.6345
840.932,84.5683
841.114,84.2115
841.297,83.9268
841.479,83.8381
841.661,83.7204
841.843,83.5824
842.026,83.3527
842.208,83.2292
842.39,83.1371
842.572,83.1581
842.755,82.5386
842.937,82.4457
843.119,82.1657
843.301,81.7965
843.483,81.6897
843.666,81.6977
843.848,81.358
844.03,80.8558
844.212,80.8666
844.394,80.7454
844.576,80.4232
844.758,80.0415
844.94,79.8286
845.122,79.7497
845.304,79.9115
845.486,79.9146
845.668,79.916
845.85,79.7717
846.032,79.7
846.214,79.5943
846.396,79.4471
846.578,79.1702
846.759,78.8992
846.941,78.6078
847.123,78.23
847.305,77.9732
847.487,77.9312
847.669,77.6873
847.85,77.4063
848.032,77.1736
848.214,76.983
848.396,76.7102
848.577,76.4131
848.759,76.4661
848.941,76.3157
849.122,76.194
849.304,75.8863
849.486,75.8596
849.667,75.8604
849.849,75.6825
850.03,75.7561
850.212,75.7414
850.394,75.4021
850.575,74.965
850.757,75.0076
850.938,74.813
851.12,74.7835
851.301,74.8552
851.483,74.7378
851.664,74.4525
851.845,74.3301
852.027,74.2145
852.208,74.2581
852.39,73.8538
852.571,73.6327
852.752,73.5035
852.934,73.7609
853.115,73.5671
853.296,73.4791
853.478,73.5257
853.659,73.4014
853.84,73.1357
854.021,72.9696
854.203,72.6354
854.384,72.7265
854.565,72.7155
854.746,72.5637
854.927,72.4594
855.108,72.344
855.29,72.31
855.471,72.2097
855.652,72.4033
855.833,72.2254
856.014,72.159
856.195,71.8183
856.376,71.7942
856.557,71.9829
856.738,71.9664
856.919,72.0357
857.1,71.8843
857.281,71.6622
857.462,71.639
857.643,71.275
857.824,71.1729
858.005,71.0602
858.185,70.9936
858.366,71.0831
858.547,70.9873
858.728,70.9439
858.909,70.8118
859.09,70.8306
859.27,70.7085
859.451,70.8385
859.632,70.509
859.813,70.3187
859.993,70.2665
860.174,70.4008
860.355,70.1654
860.535,70.0644
860.716,69.675
860.897,69.7561
861.077,69.6244
861.258,69.46
861.438,69.3848
861.619,69.5804
861.8,69.4604
861.98,69.2633
862.161,68.9147
862.341,69.1038
862.522,69.1266
862.702,68.8623
862.883,68.9813
863.063,68.9416
863.243,68.8745
863.424,68.9108
863.604,68.6636
863.785,68.1768
863.965,68.191
864.145,68.3113
864.326,68.0582
864.506,67.96
864.686,67.9591
864.867,67.9583
865.047,67.8846
865.227,67.963
865.407,68.1038
865.588,67.9343
865.768,67.7511
865.948,67.5822
866.128,67.4393
866.308,67.1416
866.488,67.3176
866.669,67.4564
866.849,67.2264
867.029,67.3052
867.209,67.1748
867.389,67.1465
867.569,67.2027
867.749,67.0122
867.929,67.0234
868.109,66.8689
868.289,66.8995
868.469,66.7161
868.649,66.6902
868.829,66.5747
869.009,66.3731
869.189,66.331
869.369,66.2594
869.548,66.0999
869.728,66.1414
869.908,66.0277
870.088,65.8778
870.268,66.0895
870.448,66.0485
870.627,65.9042
870.807,65.8753
870.987,66.0224
871.167,65.8792
871.346,65.9183
871.526,65.6428
871.706,65.7687
871.885,65.6249
872.065,65.6035
872.245,65.365
872.424,65.3141
872.604,65.4535
872.783,65.1495
872.963,65.0575
873.142,65.0131
873.322,65.2365
873.501,65.3402
873.681,65.1721
873.86,64.8788
874.04,64.9538
874.219,64.974
874.399,65.0769
874.578,65.0567
874.758,65.2363
874.937,65.1005
875.116,65.2285
875.296,65.0313
875.475,65.1996
875.654,65.1519
875.834,65.3337
876.013,65.1702
876.192,65.2485
876.372,65.2672
876.551,65.1696
876.73,65.1662
876.909,65.2839
877.088,65.1393
877.268,65.1562
877.447,65.0029
877.626,65.1812
877.805,64.8236
877.984,64.9622
878.163,65.0847
878.342,64.9385
878.521,64.8261
878.7,64.6441
878.879,64.6011
879.059,64.7193
879.238,64.6082
879.417,64.3808
879.595,64.4611
879.774,64.3881
879.953,64.0867
880.132,64.0222
880.311,63.9671
880.49,63.9533
880.669,63.7495
880.848,63.6712
881.027,63.6922
881.205,63.5141
881.384,63.2411
881.563,62.8616
881.742,62.6094
881.921,62.3408
882.099,62.5203
882.278,62.4618
882.457,62.4009
882.635,62.3043
882.814,62.3542
882.993,62.3913
883.171,62.3418
883.35,62.0665
883.529,62.1303
883.707,62.1007
883.886,62.5005
884.064,62.5295
884.243,62.5525
884.422,62.4005
884.6,62.4918
884.779,62.6169
884.957,62.3385
885.136,62.2591
885.314,62.146
885.492,62.279
885.671,62.2434
885.849,62.1073
886.028,62.1015
886.206,61.7447
886.384,61.6545
886.563,61.6616
886.741,61.9563
886.919,61.8238
887.098,61.8091
887.276,61.631
887.454,61.6243
887.632,61.5632
887.811,61.4429
887.989,61.3331
888.167,61.4036
888.345,61.5143
888.523,61.5181
888.702,61.5919
888.88,61.5874
889.058,61.2149
889.236,61.2591
889.414,61.2799
889.592,61.2019
889.77,61.1014
889.948,61.2086
890.126,61.3164
890.304,61.317
890.482,61.167
890.66,61.0961
890.838,61.0731
891.016,61.047
891.194,61.0291
891.372,60.8634
891.55,60.9021
891.728,60.6225
891.905,60.5679
892.083,60.3091
892.261,60.4057
892.439,60.5518
892.617,60.3319
892.794,60.1697
892.972,60.0935
893.15,60.259
893.328,60.4452
893.505,60.1347
893.683,60.4075
893.861,60.4685
894.038,60.5524
894.216,60.7173
894.394,60.689
894.571,60.776
894.749,60.9681
894.926,60.8501
895.104,60.7972
895.281,60.7544
895.459,60.4208
895.637,60.488
895.814,60.4518
895.992,60.6539
896.169,60.1979
896.346,60.1245
896.524,60.1777
896.701,60.3368
896.879,60.2031
897.056,60.1952
897.233,60.1632
897.411,60.3841
897.588,60.247
897.765,59.979
897.943,59.8928
898.12,60.0104
898.297,59.9111
898.475,59.6505
898.652,59.9568
898.829,59.9225
899.006,59.7233
899.183,59.4722
899.361,59.3587
899.538,59.3732
899.715,59.5362
899.892,59.6566
900.069,59.559
900.246,59.5828
900.423,59.5855
900.6,59.246
900.777,59.3846
900.954,59.4092
901.131,59.4398
901.308,59.193
901.485,59.1512
901.662,59.2189
901.839,59.3434
902.016,59.3135
902.193,59.2676
902.37,59.1064
902.547,59.0398
902.724,59.1447
902.9,58.974
903.077,59.073
903.254,59.0542
903.431,59.0595
903.608,59.0956
903.784,59.0428
903.961,59.1127
904.138,58.7814
904.315,59.0153
904.491,58.7942
904.668,58.898
904.845,58.9053
905.021,58.7775
905.198,58.9821
905.375,59.0153
905.551,59.1117
905.728,59.0465
905.904,59.1172
906.081,59.0269
906.257,58.8788
906.434,58.9326
906.61,58.6277
906.787,58.5754
906.963,58.4914
907.14,58.4007
907.316,58.3007
907.493,58.1542
907.669,57.997
907.845,57.9779
908.022,58.1715
908.198,58.1715
908.374,57.8234
908.551,57.7501
908.727,58.0337
908.903,58.1503
909.08,57.9754
909.256,57.9881
909.432,58.1483
909.608,58.2878
909.785,58.144
909.961,58.1112
910.137,57.9977
910.313,58.0676
910.489,58.017
910.665,58.027
910.841,57.8593
911.018,57.9479
911.194,57.6957
911.37,57.7617
911.546,57.6133
911.722,57.6618
911.898,57.6211
912.074,57.5453
912.25,57.4195
912.426,57.2398
912.602,57.1677
912.777,57.144
912.953,57.0935
913.129,57.3851
913.305,57.4077
913.481,57.489
913.657,57.4102
913.833,57.37
914.008,57.4487
914.184,57.3439
914.36,57.4607
914.536,57.3456
914.712,57.0913
914.887,57.1701
915.063,57.1856
915.239,57.336
915.414,57.1878
915.59,57.1933
915.766,57.1872
915.941,57.3837
916.117,57.1465
916.292,57.3399
916.468,57.5047
916.644,57.5011
916.819,57.5035
916.995,57.8
917.17,57.7609
917.346,57.8267
917.521,57.9598
917.697,57.7103
917.872,57.7183
918.048,57.7674
918.223,57.6262
918.398,57.8817
918.574,57.7876
918.749,58.0227
918.924,58.1004
919.1,57.917
919.275,57.7611
919.45,57.4711
919.626,57.4939
919.801,57.4053
919.976,57.421
920.151,57.4358
920.327,57.2178
920.502,57.2392
920.677,57.1838
920.852,57.2724
921.027,56.9421
921.202,56.8528
921.378,56.7895
921.553,56.7043
921.728,56.8308
921.903,56.7723
922.078,56.7027
922.253,56.5009
922.428,56.5863
922.603,56.7196
922.778,56.7518
922.953,56.6448
923.128,56.5015
923.303,56.5074
923.478,56.8166
923.652,56.9739
923.827,56.8215
924.002,56.8376
924.177,56.6951
924.352,56.5184
924.527,56.5133
924.702,56.4732
924.876,56.3672
925.051,56.1622
925.226,56.1663
925.401,55.8615
925.575,55.8238
925.75,55.9941
925.925,55.8922
926.099,55.7054
926.274,55.7247
926.449,55.7526
926.623,55.7726
926.798,55.6797
926.972,55.8757
927.147,56.0624
927.322,55.9682
927.496,56.1227
927.671,56.118
927.845,55.9735
928.02,55.7965
928.194,55.8973
928.368,55.7871
928.543,55.4482
928.717,55.1853
928.892,55.155
929.066,54.9516
929.24,54.8876
929.415,54.681
929.589,54.576
929.763,54.4134
929.938,54.3148
930.112,54.2361
930.286,54.2928
930.461,54.3739
930.635,54.239
930.809,54.2453
930.983,54.1858
931.157,54.0863
931.332,53.894
931.506,54.014
931.68,53.9657
931.854,54.0863
932.028,53.9209
932.202,53.8958
932.376,54.0012
932.55,54.0171
932.724,53.5781
932.898,53.5113
933.072,53.6148
933.246,53.883
933.42,53.7008
933.594,53.5099
933.768,53.5068
933.942,53.2388
934.116,53.1255
934.29,53.15
934.464,53.2845
934.638,53.3419
934.811,53.3591
934.985,53.2478
935.159,52.966
935.333,52.8148
935.507,52.6837
935.68,52.5331
935.854,52.5521
936.028,52.3341
936.201,52.3913
936.375,52.4777
936.549,52.4651
936.722,52.4902
936.896,52.394
937.07,52.1757
937.243,52.3467
937.417,52.4215
937.59,52.2668
937.764,52.0852
937.938,51.9495
938.111,51.9078
938.285,51.9155
938.458,51.7445
938.631,51.7451
938.805,51.7244
938.978,51.718
939.152,51.7264
939.325,51.953
939.499,51.8741
939.672,51.8904
939.845,51.8167
940.019,51.7136
940.192,51.7849
940.365,51.5308
940.538,51.6616
940.712,51.5793
940.885,51.6606
941.058,51.9271
941.231,52.0575
941.405,52.1248
941.578,51.8957
941.751,52.0052
941.924,51.9483
942.097,51.7995
942.27,51.8888
942.443,52.16
942.617,52.1187
942.79,52.2868
942.963,52.2334
943.136,52.1295
943.309,52.0918
943.482,52.0965
943.655,52.2884
943.828,52.0109
944.001,51.9501
944.173,51.9128
944.346,51.8845
944.519,51.6076
944.692,51.5709
944.865,51.4515
945.038,51.5803
945.211,51.5485
945.383,51.4252
945.556,51.3357
945.729,51.3718
945.902,51.3449
946.075,51.2449
946.247,51.3433
946.42,51.306
946.593,51.2465
946.765,51.2359
946.938,51.1589
947.111,51.2597
947.283,51.384
947.456,51.2326
947.628,51.0062
947.801,51.2496
947.974,50.959
948.146,50.8016
948.319,50.5738
948.491,50.8116
948.664,50.6712
948.836,50.4907
949.009,50.5856
949.181,50.5958
949.353,50.5913
949.526,50.5288
949.698,50.6201
949.871,50.6219
950.043,50.584
950.215,50.3884
950.388,50.3169
950.56,50.5775
950.732,50.5274
950.904,50.4994
951.077,50.6182
951.249,50.5532
951.421,50.5076
951.593,50.6364
951.766,50.8063
951.938,50.9365
952.11,50.9926
952.282,51.0643
952.454,50.9223
952.626,51.1085
952.798,51.1935
952.97,51.0684
953.142,51.1407
953.314,50.8078
953.487,50.7862
953.659,50.7595
953.83,50.8049
954.002,50.7472
954.174,50.7729
954.346,50.6417
954.518,50.5219
954.69,50.5543
954.862,50.7389
955.034,50.8534
955.206,50.9696
955.378,51.0521
955.549,51.1373
955.721,50.8632
955.893,50.9117
956.065,50.8618
956.236,51.1006
956.408,51.2247
956.58,51.1228
956.752,51.1177
956.923,51.3704
957.095,51.3675
957.267,51.3527
957.438,51.134
957.61,51.1356
957.781,51.0986
957.953,51.0959
958.125,51.1053
958.296,50.8913
958.468,50.7578
958.639,50.7381
958.811,50.7713
958.982,51.0236
959.154,51.0719
959.325,51.0327
959.496,50.9441
959.668,50.9009
959.839,51.0331
960.011,51.1381
960.182,51.4319
960.353,51.3889
960.525,51.2013
960.696,51.1039
960.867,51.3877
961.038,51.4401
961.21,51.6314
961.381,51.4297
961.552,51.5081
961.723,51.3021
961.895,51.0774
962.066,50.9219
962.237,51.0808
962.408,51.0998
962.579,51.0717
962.75,51.1953
962.921,51.2932
963.092,51.4721
963.263,51.513
963.434,51.5079
963.605,51.4075
963.776,51.3796
963.947,51.3492
964.118,51.3025
964.289,51.166
964.46,51.1579
964.631,51.0494
964.802,50.9003
964.973,50.9315
965.144,50.7053
965.315,50.6614
965.485,50.4946
965.656,50.4473
965.827,50.5274
965.998,50.2975
966.169,50.0638
966.339,50.2478
966.51,50.0253
966.681,50.217
966.851,50.3266
967.022,50.0216
967.193,49.9124
967.363,50.2517
967.534,50.0528
967.705,50.1278
967.875,49.9474
968.046,49.9262
968.216,49.8659
968.387,50.1039
968.557,49.946
968.728,50.0546
968.898,50.2339
969.069,50.1394
969.239,50.1406
969.41,50.2386
969.58,50.2459
969.751,50.3012
969.921,50.5657
970.091,50.5488
970.262,50.7589
970.432,50.9804
970.602,51.0906
970.773,51.0584
970.943,50.9834
971.113,51.2685
971.283,51.1807
971.454,51.1012
971.624,51.3739
971.794,51.3054
971.964,51.262
972.134,51.1295
972.305,51.1672
972.475,51.2736
972.645,51.3003
972.815,51.3498
972.985,51.5312
973.155,51.3734
973.325,51.4641
973.495,51.4605
973.665,51.4507
973.835,51.2292
974.005,51.1034
974.175,51.2432
974.345,51.0596
974.515,51.0802
974.685,51.0443
974.855,51.1094
975.024,51.1354
975.194,50.842
975.364,50.5828
975.534,50.2598
975.704,49.9089
975.874,49.8594
976.043,49.8457
976.213,49.7447
976.383,49.6344
976.553,49.615
976.722,49.913
976.892,49.7536
977.062,49.7094
977.231,49.4555
977.401,49.5922
977.57,49.4912
977.74,49.4748
977.91,49.4003
978.079,49.3974
978.249,49.3652
978.418,49.2525
978.588,49.2044
978.757,49.2319
978.927,49.45
979.096,49.2279
979.266,49.4166
979.435,49.2599
979.604,49.427
979.774,49.5735
979.943,49.56
980.113,49.4801
980.282,49.4092
980.451,49.301
980.621,49.364
980.79,49.2658
980.959,49.244
981.128,49.2254
981.298,49.1928
981.467,49.0276
981.636,48.9528
981.805,49.0795
981.974,49.2617
982.143,48.911
982.313,48.903
982.482,48.801
982.651,48.8847
982.82,48.795
982.989,48.8138
983.158,48.803
983.327,48.7207
983.496,48.8197
983.665,48.6909
983.834,48.6049
984.003,48.6504
984.172,48.5872
984.341,48.6822
984.51,48.6483
984.679,48.706
984.847,48.4649
985.016,48.3632
985.185,48.1452
985.354,47.9958
985.523,47.9687
985.692,48.0451
985.86,47.94
986.029,47.8734
986.198,47.6596
986.366,47.604
986.535,47.4678
986.704,47.5059
986.873,47.4513
987.041,47.3625
987.21,47.3132
987.378,47.3468
987.547,47.5383
987.716,47.5078
987.884,47.1369
988.053,47.1836
988.221,47.2419
988.39,47.3869
988.558,47.3818
988.727,47.2889
988.895,47.1962
989.064,46.9686
989.232,46.7817
989.4,46.8015
989.569,46.7695
989.737,46.8369
989.905,46.9445
990.074,47.0472
990.242,47.0405
990.41,46.7067
990.579,46.569
990.747,46.472
990.915,46.5166
991.083,46.2578
991.252,46.1997
991.42,46.2087
991.588,46.3088
991.756,46.421
991.924,46.4265
992.092,46.4763
992.261,46.5449
992.429,46.579
992.597,46.5765
992.765,46.518
992.933,46.4665
993.101,46.1402
993.269,46.1431
993.437,46.1062
993.605,46.1005
993.773,46.2048
993.941,45.8735
994.109,45.8802
994.277,45.7518
994.444,45.6583
994.612,45.6084
994.78,45.7753
994.948,45.5945
995.116,45.5161
995.284,45.0794
995.451,45.0743
995.619,45.0936
995.787,45.0404
995.955,45.0288
996.122,45.1387
996.29,45.1458
996.458,45.1429
996.625,45.1311
996.793,45.1118
996.961,44.974
997.128,44.6842
997.296,44.7551
997.463,44.7201
997.631,44.7774
997.798,44.9125
997.966,44.961
998.133,45.0117
998.301,45.2564
998.468,45.3673
998.636,45.5275
998.803,45.3944
998.971,45.4608
999.138,45.5046
999.305,45.5148
999.473,45.8181
999.64,45.9291
999.807,45.9246
999.975,46.0669
1000.14,46.0567
1000.31,45.9116
1000.48,46.1612
1000.64,46.0141
1000.81,45.8955
1000.98,46.1154
1001.15,46.2576
1001.31,46.0006
1001.48,46.1178
1001.65,45.9238
1001.81,45.7614
1001.98,45.9008
1002.15,46.0836
1002.32,46.104
1002.48,46.2708
1002.65,46.1478
1002.82,46.0353
1002.98,46.0279
1003.15,46.0184
1003.32,45.8339
1003.48,45.8189
1003.65,45.8767
1003.82,45.5935
1003.98,45.6332
1004.15,45.4855
1004.32,45.3589
1004.49,45.123
1004.65,45.1827
1004.82,45.0985
1004.99,44.9612
1005.15,45.2271
1005.32,45.1682
1005.49,45.0457
1005.65,45.1232
1005.82,44.8629
1005.99,45.0178
1006.15,44.965
1006.32,44.6577
1006.49,44.6708
1006.65,44.5544
1006.82,44.3865
1006.99,44.2259
1007.15,44.3048
1007.32,44.2049
1007.49,44.035
1007.65,44.2212
1007.82,44.185
1007.98,44.3525
1008.15,44.4334
1008.32,44.4146
1008.48,44.5436
1008.65,44.6019
1008.82,44.7166
1008.98,44.8627
1009.15,45.1177
1009.32,45.2956
1009.48,45.3217
1009.65,45.5953
1009.81,45.7264
1009.98,45.7435
1010.15,45.8075
1010.31,45.8327
1010.48,45.5525
1010.65,45.6503
1010.81,45.7259
1010.98,45.8048
1011.14,45.6925
1011.31,45.7965
1011.48,45.8015
1011.64,45.784
1011.81,45.5715
1011.97,45.634
1012.14,45.6754
1012.31,45.6642
1012.47,45.5798
1012.64,45.3037
1012.8,45.2732
1012.97,45.1537
1013.14,45.0233
1013.3,45.1058
1013.47,44.9889
1013.63,45.0174
1013.8,45.005
1013.97,44.9805
1014.13,45.2249
1014.3,44.9974
1014.46,44.8159
1014.63,44.7134
1014.79,44.857
1014.96,44.9805
1015.13,45.1193
1015.29,45.1792
1015.46,45.0421
1015.62,44.9328
1015.79,44.9192
1015.95,44.9322
1016.12,44.9428
1016.29,44.9585
1016.45,44.9669
1016.62,44.8026
1016.78,44.9104
1016.95,44.9233
1017.11,44.885
1017.28,44.8731
1017.44,45.0097
1017.61,45.1264
1017.78,45.1458
1017.94,45.0023
1018.11,45.2365
1018.27,45.2544
1018.44,45.2797
1018.6,45.2844
1018.77,45.2507
1018.93,45.2463
1019.1,45.0977
1019.26,44.7527
1019.43,44.7054
1019.59,44.6076
1019.76,44.5122
1019.92,44.457
1020.09,44.5726
1020.25,44.6302
1020.42,44.6115
1020.59,44.478
1020.75,44.3729
1020.92,44.4071
1021.08,44.2237
1021.25,44.3769
1021.41,44.8858
1021.58,44.941
1021.74,45.019
1021.91,44.8693
1022.07,44.8468
1022.24,44.7535
1022.4,44.8585
1022.57,44.7947
1022.73,44.8462
1022.89,44.7146
1023.06,44.9002
1023.22,44.7513
1023.39,44.8085
1023.55,44.757
1023.72,44.8234
1023.88,44.976
1024.05,44.9685
1024.21,45.0551
1024.38,44.9881
1024.54,45.0258
1024.71,45.1833
1024.87,45.04
1025.04,44.8479
1025.2,44.7119
1025.37,44.7788
1025.53,44.9027
1025.7,44.8723
1025.86,44.8142
1026.02,44.6202
1026.19,44.6272
1026.35,44.7225
1026.52,44.8532
1026.68,44.9169
1026.85,44.8746
1027.01,45.0555
1027.18,45.09
1027.34,45.35
1027.5,40.1129
1027.67,42.6933
1027.83,63.5826
1028,35.976
1028.16,31.3476
1028.33,24.7941
1028.49,52.4007
1028.65,41.9151
1028.82,41.8741
1028.98,36.4265
1029.15,15.4963
1029.31,14.1037
1029.48,40.3177
1029.64,25.2446
1029.8,91.6398
1029.97,43.021
1030.13,72.6756
1030.3,30.4055
1030.46,26.0638
1030.62,71.3649
1030.79,22.7461
1030.95,-1.13321
1031.12,7.26346
1031.28,57.8483
1031.44,67.228
1031.61,66.8594
1031.77,47.8952
1031.94,25.4085
1032.1,43.2258
1032.26,39.4166
1032.43,39.0889
1032.59,35.1568
1032.76,56.4966
1032.92,75.9933
1033.08,22.7461
1033.25,52.6874
1033.41,56.7833
1033.57,54.7763
1033.74,26.0229
1033.9,48.3867
1034.07,90.2881
1034.23,68.7025
1034.39,11.4823
1034.56,97.1283
1034.72,41.1369
1034.88,57.4797
1035.05,33.0269
1035.21,26.3505
1035.37,32.8631
1035.54,28.7671
1035.7,-1.9524
1035.86,43.3077
1036.03,43.5125
1036.19,37.1228
1036.35,20.3705
1036.52,58.5446
1036.68,60.142
1036.84,56.6605
1037.01,25.5723
1037.17,22.7461
1037.33,46.2158
1037.5,30.3645
1037.66,54.2029
1037.82,94.7117
1037.99,62.149
1038.15,60.6745
1038.31,49.6564
1038.48,26.1048
1038.64,10.4993
1038.8,47.1579
1038.97,14.3085
1039.13,52.7284
1039.29,32.0029
1039.46,71.4468
1039.62,39.1299
1039.78,43.8402
1039.95,49.4516
1040.11,46.6254
1040.27,53.9572
1040.43,44.0859
1040.6,31.3476
1040.76,37.3276
1040.92,31.1018
1041.09,57.4797
1041.25,37.8601
1041.41,28.3985
1041.57,37.5734
1041.74,61.3708
1041.9,62.3538
1042.06,42.1199
1042.23,43.1029
1042.39,25.4494
1042.55,51.2129
1042.71,68.9892
1042.88,53.3018
1043.04,45.069
1043.2,26.3915
1043.36,86.4379
1043.53,64.8933
1043.69,61.0841
EndSpectrumFile,BASELINE
SpectrumFile,RAW DATA
Version,1.000000
Location,home
Customer,rudolf
SampleInfo,
GPSData,51.118519,-114.185438,1148.948730,193002,121211
SystemTime,2011,12,12,19,31,40,786
Pipe km,0.000000
Pre-Dilution Factor,1.000000
Freeform Info,
Concentration,0.097600
CalibrationName,paper-distance
Unique Calibration File ID,20111207-0014320750-TESTBOX2-7E963C-00018940
CalibrationWavelength,780.000000
CalibrationType,2,-0.131013,0.002732
CalibrationRSquared,0.999340
CalibrationConcentrations [ppm],3,0.000000,1.000000,10.000000
CalibrationCounts,3,0.000000,468.910000,3701.410000
CalibrationWarnLow,0.000000
CalibrationWarnHigh,10.000000
CalibrationErrorLow,0.000000
CalibrationErrorHigh,0.000000
Spectrometer Name,USB4000
Spectrometer Serial,USB4H02759
IntegrationTime [ms],50.000000
AveragedSpectra,50
BoxcarWidth,100
WavelengthRange [nm],346.775360,1043.690197
IntensityRange [counts],-105.878847,396.720398
WavelengthCount,3648
Wavelength [nm],Intensity [counts]
346.775,-102.274
346.991,-102.274
347.206,-102.274
347.421,-105.879
347.637,-102.561
347.852,73.5232
348.067,52.0195
348.282,55.5011
348.498,49.9306
348.713,58.9007
348.928,77.5372
349.143,78.3974
349.358,26.7886
349.574,49.562
349.789,39.9365
350.004,96.9929
350.219,56.1155
350.434,52.3063
350.649,53.617
350.864,44.7697
351.079,69.6321
351.295,68.4443
351.51,24.9044
351.725,48.2922
351.94,13.8454
352.155,39.2402
352.37,69.4682
352.585,44.4421
352.8,99.5324
353.015,35.7996
353.23,87.818
353.445,46.6948
353.66,50.9546
353.875,66.9288
354.09,90.3575
354.305,28.8775
354.52,67.3793
354.735,39.5679
354.949,66.724
355.164,86.4254
355.379,41.6568
355.594,56.7708
355.809,89.1697
356.024,74.752
356.239,66.9697
356.453,81.5922
356.668,61.4812
356.883,69.7959
357.098,89.7022
357.313,70.8609
357.527,71.1476
357.742,49.0705
357.957,46.0395
358.172,56.566
358.386,62.5871
358.601,69.1406
358.816,93.3885
359.03,26.9524
359.245,75.0387
359.46,90.931
359.674,62.3823
359.889,19.6207
360.104,84.9509
360.318,79.2575
360.533,69.3863
360.748,36.414
360.962,65.6181
361.177,48.7018
361.391,82.821
361.606,45.4251
361.82,79.4623
362.035,63.652
362.25,45.0974
362.464,51.4871
362.679,119.357
362.893,61.8088
363.108,73.2775
363.322,87.2036
363.536,59.638
363.751,54.1085
363.965,59.3103
364.18,55.4601
364.394,68.9767
364.609,62.0956
364.823,74.3014
365.037,77.6192
365.252,53.576
365.466,45.1384
365.68,65.7409
365.895,56.6889
366.109,65.9867
366.323,42.8037
366.538,56.4022
366.752,41.6159
366.966,55.2963
367.181,38.8716
367.395,44.4421
367.609,35.9225
367.823,91.5453
368.038,64.0616
368.252,59.3584
368.466,60.1839
368.68,61.0873
368.894,61.8954
369.109,62.5962
369.323,63.5306
369.537,63.3946
369.751,63.4093
369.965,63.4731
370.179,63.5367
370.393,63.5764
370.607,63.5646
370.822,63.7097
371.036,63.9691
371.25,64.0115
371.464,64.1723
371.678,64.0746
371.892,64.1392
372.106,64.113
372.32,64.3923
372.534,64.5488
372.748,64.6546
372.962,64.7114
373.176,64.9024
373.39,65.0522
373.604,65.3407
373.818,65.5196
374.031,65.4096
374.245,65.5592
374.459,65.4049
374.673,65.474
374.887,65.4173
375.101,65.537
375.315,65.6523
375.529,65.7173
375.742,65.5944
375.956,65.765
376.17,65.6429
376.384,65.7038
376.598,65.5765
376.811,65.4281
377.025,65.6963
377.239,65.8864
377.453,65.9219
377.666,66.0334
377.88,65.9535
378.094,66.3313
378.307,66.4336
378.521,66.4782
378.735,66.2848
378.948,66.3417
379.162,66.3443
379.376,66.458
379.589,66.7757
379.803,66.7996
380.016,66.6869
380.23,66.791
380.444,66.779
380.657,66.9724
380.871,67.0141
381.084,66.9355
381.298,66.7311
381.511,66.8042
381.725,67.0679
381.938,67.2246
382.152,67.223
382.365,67.3347
382.579,67.2986
382.792,67.4384
383.006,67.3989
383.219,67.558
383.433,67.5717
383.646,67.7047
383.859,67.7098
384.073,67.8268
384.286,67.5262
384.5,67.6061
384.713,67.6436
384.926,67.5419
385.14,67.8539
385.353,67.9733
385.566,68.0603
385.779,68.1767
385.993,68.1598
386.206,68.2714
386.419,68.2052
386.633,68.0408
386.846,68.3776
387.059,68.594
387.272,68.6684
387.485,68.9097
387.699,68.8441
387.912,69.0427
388.125,69.1577
388.338,69.6115
388.551,69.7812
388.764,69.9814
388.978,70.1285
389.191,70.1906
389.404,70.2683
389.617,70.2006
389.83,70.2098
390.043,70.3716
390.256,70.2432
390.469,70.4943
390.682,70.438
390.895,70.5466
391.108,70.4017
391.321,70.4502
391.534,70.2338
391.747,70.3561
391.96,69.9942
392.173,70.148
392.386,70.5513
392.599,70.815
392.812,71.2364
393.025,71.3811
393.238,71.4433
393.451,71.5162
393.663,71.4127
393.876,71.7846
394.089,71.6886
394.302,71.9213
394.515,72.0422
394.728,72.0155
394.941,72.1465
395.153,72.0925
395.366,72.0611
395.579,72.2339
395.792,72.1392
396.004,72.4352
396.217,72.441
396.43,72.6317
396.643,72.952
396.855,72.9043
397.068,73.0914
397.281,73.3264
397.493,73.3702
397.706,73.4124
397.919,73.5006
398.131,73.7885
398.344,73.8743
398.557,73.8902
398.769,73.5748
398.982,73.7814
399.194,73.8052
399.407,73.9891
399.619,74.1388
399.832,74.3689
400.045,74.5875
400.257,75.2472
400.47,75.4589
400.682,75.8874
400.895,76.152
401.107,76.3765
401.319,76.5915
401.532,76.684
401.744,76.8784
401.957,77.0899
402.169,76.9263
402.382,77.1725
402.594,77.4082
402.806,77.7591
403.019,78.1728
403.231,78.1954
403.444,78.2323
403.656,78.3208
403.868,78.6372
404.081,79.0138
404.293,79.3692
404.505,79.367
404.717,79.4943
404.93,79.9347
405.142,79.9002
405.354,80.2542
405.566,80.5876
405.779,80.6858
405.991,80.8513
406.203,81.1567
406.415,81.2533
406.627,81.3982
406.84,81.4803
407.052,82.0656
407.264,81.9142
407.476,82.0505
407.688,82.5255
407.9,82.7234
408.112,83.0865
408.324,83.5191
408.537,83.695
408.749,84.2572
408.961,84.5863
409.173,84.9209
409.385,85.0424
409.597,84.9784
409.809,85.1253
410.021,85.3458
410.233,85.6297
410.445,85.7083
410.657,86.271
410.869,86.5668
411.081,86.6973
411.292,87.0141
411.504,87.3308
411.716,87.7249
411.928,88.0774
412.14,88.2939
412.352,88.5787
412.564,88.894
412.776,89.1122
412.988,89.4411
413.199,89.477
413.411,89.6194
413.623,89.7388
413.835,89.888
414.047,90.1947
414.258,90.6524
414.47,90.9307
414.682,91.021
414.894,91.3642
415.105,91.3568
415.317,91.4706
415.529,91.6696
415.74,91.8166
415.952,92.165
416.164,92.3329
416.375,92.5359
416.587,92.8444
416.799,93.263
417.01,93.5418
417.222,93.8904
417.433,94.3974
417.645,94.6104
417.857,94.8973
418.068,95.2296
418.28,95.4673
418.491,95.7713
418.703,96.2275
418.914,96.7252
419.126,97.3027
419.337,97.84
419.549,98.0147
419.76,98.2005
419.972,98.4497
420.183,98.8031
420.394,98.9894
420.606,99.361
420.817,99.2893
421.029,99.5691
421.24,99.8703
421.451,100.24
421.663,100.723
421.874,101.195
422.085,101.409
422.297,101.508
422.508,101.923
422.719,102.713
422.931,103.006
423.142,103.352
423.353,103.865
423.565,104.319
423.776,104.646
423.987,105.431
424.198,105.94
424.409,105.989
424.621,106.301
424.832,106.696
425.043,107.148
425.254,107.691
425.465,107.976
425.676,108.52
425.888,109
426.099,109.288
426.31,109.587
426.521,110.022
426.732,110.406
426.943,110.924
427.154,111.394
427.365,111.669
427.576,112.102
427.787,112.206
427.998,112.467
428.209,112.922
428.42,113.428
428.631,114.012
428.842,114.313
429.053,114.617
429.264,115.304
429.475,115.667
429.686,116.077
429.897,116.52
430.108,116.785
430.319,117.596
430.529,117.912
430.74,118.305
430.951,118.661
431.162,119.048
431.373,119.35
431.584,119.938
431.794,120.552
432.005,120.803
432.216,121.409
432.427,121.79
432.637,122.324
432.848,123.138
433.059,123.314
433.27,123.592
433.48,124.255
433.691,124.786
433.902,125.49
434.112,125.857
434.323,126.359
434.534,127.005
434.744,127.461
434.955,127.518
435.166,127.795
435.376,128.093
435.587,128.658
435.797,129.07
436.008,129.432
436.218,130.269
436.429,130.813
436.64,131.363
436.85,131.733
437.061,132.178
437.271,132.982
437.482,133.413
437.692,134.142
437.902,134.556
438.113,134.958
438.323,135.465
438.534,135.726
438.744,136.086
438.955,136.705
439.165,137.242
439.375,137.57
439.586,137.678
439.796,138.089
440.006,138.438
440.217,139.109
440.427,139.6
440.637,140.008
440.848,140.286
441.058,140.813
441.268,141.5
441.479,141.928
441.689,142.523
441.899,143.061
442.109,143.411
442.319,144.008
442.53,144.402
442.74,144.545
442.95,145.309
443.16,145.624
443.37,146.36
443.58,146.748
443.791,147.516
444.001,147.994
444.211,148.451
444.421,149.067
444.631,149.908
444.841,150.659
445.051,151.06
445.261,151.325
445.471,152.667
445.681,153.344
445.891,154.029
446.101,154.614
446.311,155.147
446.521,155.481
446.731,155.883
446.941,156.553
447.151,157.306
447.361,157.658
447.571,158.16
447.781,158.849
447.991,159.278
448.201,159.925
448.41,160.822
448.62,161.286
448.83,161.846
449.04,162.257
449.25,163.054
449.46,163.461
449.669,163.975
449.879,164.517
450.089,164.934
450.299,165.82
450.508,166.242
450.718,166.837
450.928,167.298
451.138,167.831
451.347,168.558
451.557,169.215
451.767,169.805
451.976,170.479
452.186,171.201
452.396,171.656
452.605,172.105
452.815,172.848
453.025,173.295
453.234,173.965
453.444,174.529
453.653,175.066
453.863,175.417
454.072,175.845
454.282,176.509
454.491,177.006
454.701,177.676
454.911,178.248
455.12,178.943
455.329,179.458
455.539,180.312
455.748,180.961
455.958,181.412
456.167,182.161
456.377,182.813
456.586,183.215
456.795,183.679
457.005,184.358
457.214,185.209
457.424,185.847
457.633,186.549
457.842,187.178
458.052,187.822
458.261,188.397
458.47,189.082
458.679,189.709
458.889,190.296
459.098,190.957
459.307,191.562
459.517,192.177
459.726,192.726
459.935,193.472
460.144,194.079
460.353,194.613
460.563,195.412
460.772,196.015
460.981,196.691
461.19,197.38
461.399,197.82
461.608,198.423
461.817,199.407
462.026,200.224
462.236,200.921
462.445,201.618
462.654,202.472
462.863,203.235
463.072,204.042
463.281,204.7
463.49,205.359
463.699,206.219
463.908,206.868
464.117,207.264
464.326,208.12
464.535,209.088
464.744,209.869
464.952,210.131
465.161,210.672
465.37,211.366
465.579,211.837
465.788,212.341
465.997,213.175
466.206,213.816
466.415,214.694
466.623,215.554
466.832,216.191
467.041,217.05
467.25,217.825
467.459,218.43
467.667,219.202
467.876,220.014
468.085,220.818
468.294,221.539
468.502,222.36
468.711,223.43
468.92,224.234
469.128,225.187
469.337,225.797
469.546,226.638
469.754,227.558
469.963,228.483
470.172,229.662
470.38,230.502
470.589,231.186
470.798,231.971
471.006,232.83
471.215,233.835
471.423,234.711
471.632,235.406
471.84,236.283
472.049,237.288
472.257,238.231
472.466,239.013
472.674,239.96
472.883,241.028
473.091,241.755
473.3,242.787
473.508,243.819
473.716,244.808
473.925,245.746
474.133,246.792
474.342,247.71
474.55,248.82
474.758,249.991
474.967,250.604
475.175,251.86
475.383,253.135
475.592,254.031
475.8,254.858
476.008,255.632
476.217,256.593
476.425,257.679
476.633,258.356
476.841,259.188
477.05,260.29
477.258,261.52
477.466,262.413
477.674,263.143
477.882,264.229
478.091,265.294
478.299,266.1
478.507,267.001
478.715,268.257
478.923,269.137
479.131,270.321
479.339,271.11
479.547,272.272
479.755,273.26
479.963,274.353
480.171,275.45
480.38,276.459
480.588,277.652
480.796,278.709
481.004,279.414
481.212,280.311
481.42,281.515
481.627,282.914
481.835,284.092
482.043,285.245
482.251,286.202
482.459,287.319
482.667,288.28
482.875,289.381
483.083,290.844
483.291,291.852
483.499,292.893
483.706,293.78
483.914,294.839
484.122,295.927
484.33,296.925
484.538,298.199
484.745,299.275
484.953,300.05
485.161,301.014
485.369,302.074
485.576,303.509
485.784,304.351
485.992,305.564
486.199,306.625
486.407,307.598
486.615,308.566
486.822,309.418
487.03,310.571
487.238,311.714
487.445,311.679
487.653,312.714
487.861,313.884
488.068,314.73
488.276,315.758
488.483,316.895
488.691,317.956
488.898,319.149
489.106,319.951
489.313,321.097
489.521,322.251
489.728,322.979
489.936,324.037
490.143,325.124
490.351,325.938
490.558,327.045
490.766,327.975
490.973,329.131
491.18,329.918
491.388,330.845
491.595,332.016
491.802,333.224
492.01,334.204
492.217,334.858
492.424,336.011
492.632,336.837
492.839,338.025
493.046,338.909
493.254,339.709
493.461,340.512
493.668,341.541
493.875,342.609
494.083,343.188
494.29,344.103
494.497,345.23
494.704,345.929
494.911,346.785
495.119,347.597
495.326,348.536
495.533,349.495
495.74,350.31
495.947,351.109
496.154,351.845
496.361,352.472
496.568,352.958
496.775,353.583
496.982,354.252
497.19,355.13
497.397,355.833
497.604,356.624
497.811,357.444
498.018,358.318
498.225,359.09
498.432,359.798
498.638,360.6
498.845,361.733
499.052,362.241
499.259,363.039
499.466,363.725
499.673,364.173
499.88,365.143
500.087,365.661
500.294,366.339
500.501,367.061
500.707,367.657
500.914,368.251
501.121,368.985
501.328,369.498
501.535,370.439
501.741,371.354
501.948,371.984
502.155,372.902
502.362,373.327
502.568,373.995
502.775,374.675
502.982,375.296
503.188,375.885
503.395,376.493
503.602,376.819
503.808,377.111
504.015,377.546
504.222,377.862
504.428,378.332
504.635,379.263
504.841,379.603
505.048,380.245
505.254,380.851
505.461,381.462
505.668,381.782
505.874,382.6
506.081,383.306
506.287,383.419
506.494,383.737
506.7,384.421
506.907,385.208
507.113,385.695
507.319,386.378
507.526,387.179
507.732,387.801
507.939,388.251
508.145,388.491
508.351,388.763
508.558,389.033
508.764,389.309
508.97,389.604
509.177,390.079
509.383,390.46
509.589,390.739
509.796,390.845
510.002,391.434
510.208,391.627
510.414,391.718
510.621,392.029
510.827,392.177
511.033,392.658
511.239,393.04
511.445,393.196
511.652,393.475
511.858,393.667
512.064,393.919
512.27,394.215
512.476,394.42
512.682,394.813
512.888,395.009
513.095,395.101
513.301,395.36
513.507,395.417
513.713,395.422
513.919,395.555
514.125,395.588
514.331,395.921
514.537,396.034
514.743,396.188
514.949,396.327
515.155,396.513
515.361,396.572
515.567,396.63
515.773,396.563
515.978,396.613
516.184,396.601
516.39,396.185
516.596,396.222
516.802,396.138
517.008,395.948
517.214,395.821
517.419,396.004
517.625,396.12
517.831,396.213
518.037,396.024
518.243,396.206
518.448,396.405
518.654,396.488
518.86,396.339
519.066,396.606
519.271,396.684
519.477,396.63
519.683,396.594
519.888,396.72
520.094,396.655
520.3,396.334
520.505,396.487
520.711,396.522
520.917,396.682
521.122,396.7
521.328,396.558
521.533,396.457
521.739,396.646
521.944,396.546
522.15,396.462
522.356,396.409
522.561,396.474
522.767,396.3
522.972,396.071
523.177,396.019
523.383,396.137
523.588,396.031
523.794,395.742
523.999,395.399
524.205,395.502
524.41,395.41
524.615,394.975
524.821,394.779
525.026,394.646
525.232,394.521
525.437,394.471
525.642,394.36
525.847,394.27
526.053,393.987
526.258,393.787
526.463,393.637
526.669,393.461
526.874,392.996
527.079,392.363
527.284,392.235
527.49,391.91
527.695,391.413
527.9,391.134
528.105,390.685
528.31,390.365
528.515,389.942
528.721,389.655
528.926,389.16
529.131,388.622
529.336,388.255
529.541,388.073
529.746,387.746
529.951,387.405
530.156,387.088
530.361,386.427
530.566,386.08
530.771,385.726
530.976,385.223
531.181,384.989
531.386,384.503
531.591,383.943
531.796,383.599
532.001,383.158
532.206,382.577
532.411,382.102
532.616,381.661
532.821,381.129
533.025,380.458
533.23,379.685
533.435,379.197
533.64,378.643
533.845,378.035
534.05,377.596
534.254,376.967
534.459,376.42
534.664,375.769
534.869,375.428
535.073,374.888
535.278,374.253
535.483,373.805
535.688,373.271
535.892,372.677
536.097,372.175
536.302,371.509
536.506,371.097
536.711,370.661
536.916,369.959
537.12,369.449
537.325,369.119
537.529,368.652
537.734,368.214
537.938,368.489
538.143,368.292
538.348,367.749
538.552,367.09
538.757,366.67
538.961,366.373
539.166,365.919
539.37,365.429
539.575,364.72
539.779,364.032
539.983,363.527
540.188,362.683
540.392,362.053
540.597,361.549
540.801,360.956
541.005,360.506
541.21,359.645
541.414,359.27
541.618,358.748
541.823,358.132
542.027,357.519
542.231,357.051
542.436,356.276
542.64,355.826
542.844,354.844
543.048,353.94
543.253,353.328
543.457,352.399
543.661,351.713
543.865,351.106
544.069,350.251
544.274,349.601
544.478,348.965
544.682,348.486
544.886,347.873
545.09,347.599
545.294,346.988
545.498,346.613
545.702,345.849
545.907,344.78
546.111,344.095
546.315,343.443
546.519,342.746
546.723,341.821
546.927,341.42
547.131,340.666
547.335,339.831
547.539,339.461
547.743,338.95
547.947,338.435
548.15,337.546
548.354,336.742
548.558,336.056
548.762,335.213
548.966,334.249
549.17,333.522
549.374,332.797
549.578,331.98
549.781,331.407
549.985,330.717
550.189,330.246
550.393,329.758
550.597,329.095
550.8,328.265
551.004,327.725
551.208,327.136
551.412,326.586
551.615,325.88
551.819,325.307
552.023,324.627
552.226,323.858
552.43,323.024
552.634,322.147
552.837,321.489
553.041,320.609
553.244,319.844
553.448,319.278
553.652,318.544
553.855,317.755
554.059,317.26
554.262,316.592
554.466,315.923
554.669,315.354
554.873,314.834
555.076,314.27
555.28,313.515
555.483,312.784
555.687,311.946
555.89,311.118
556.094,310.219
556.297,309.48
556.5,308.653
556.704,307.872
556.907,307.316
557.111,306.622
557.314,305.843
557.517,305.454
557.721,304.844
557.924,304.22
558.127,303.459
558.33,302.809
558.534,302.23
558.737,301.552
558.94,300.665
559.144,300.077
559.347,299.496
559.55,298.689
559.753,298.055
559.956,297.298
560.159,296.664
560.363,296.333
560.566,295.823
560.769,295.251
560.972,294.547
561.175,293.916
561.378,293.523
561.581,292.745
561.784,292.156
561.987,291.473
562.19,290.675
562.394,290.138
562.597,289.934
562.8,289.223
563.003,288.643
563.205,287.95
563.408,287.54
563.611,287.091
563.814,286.798
564.017,286.484
564.22,285.728
564.423,285.004
564.626,284.52
564.829,284.04
565.032,283.762
565.235,283.072
565.437,282.647
565.64,282.066
565.843,281.86
566.046,281.494
566.249,281.095
566.451,280.387
566.654,280.115
566.857,279.82
567.06,279.392
567.262,279.243
567.465,279.189
567.668,278.827
567.87,278.366
568.073,278.087
568.276,277.565
568.478,277.406
568.681,277.363
568.884,276.999
569.086,276.924
569.289,276.672
569.491,276.678
569.694,276.384
569.896,276.294
570.099,276.376
570.301,276.052
570.504,275.853
570.706,275.448
570.909,275.153
571.111,274.986
571.314,275.194
571.516,275.03
571.719,274.946
571.921,274.844
572.124,274.687
572.326,274.569
572.528,274.528
572.731,274.519
572.933,274.571
573.135,274.801
573.338,274.751
573.54,274.582
573.742,274.524
573.945,274.79
574.147,274.938
574.349,274.88
574.551,274.898
574.754,275.022
574.956,275.22
575.158,275.085
575.36,275.504
575.562,275.744
575.765,275.613
575.967,275.74
576.169,276.194
576.371,276.234
576.573,276.463
576.775,276.373
576.977,276.453
577.179,276.552
577.382,276.496
577.584,276.664
577.786,276.867
577.988,277.281
578.19,277.284
578.392,277.589
578.594,277.891
578.796,277.705
578.998,277.764
579.2,277.851
579.401,278.183
579.603,278.496
579.805,278.593
580.007,278.633
580.209,278.453
580.411,279.18
580.613,279.69
580.815,280.015
581.016,280.275
581.218,280.675
581.42,280.916
581.622,281.293
581.824,281.803
582.025,282.472
582.227,282.88
582.429,282.982
582.631,283.171
582.832,283.481
583.034,283.782
583.236,284.213
583.437,284.548
583.639,284.97
583.841,285.272
584.042,285.652
584.244,286.03
584.446,286.6
584.647,287.006
584.849,287.276
585.05,287.497
585.252,287.78
585.453,287.983
585.655,288.441
585.856,288.521
586.058,288.792
586.259,289.138
586.461,289.478
586.662,290.077
586.864,290.611
587.065,291.229
587.267,291.561
587.468,292.119
587.67,292.67
587.871,293.043
588.072,293.386
588.274,293.852
588.475,294.43
588.676,294.619
588.878,295.045
589.079,295.736
589.28,296.191
589.481,296.519
589.683,296.885
589.884,297.427
590.085,298.066
590.286,298.756
590.488,299.224
590.689,299.723
590.89,300.013
591.091,300.185
591.292,300.7
591.494,301.143
591.695,301.575
591.896,302.058
592.097,302.491
592.298,302.823
592.499,303.214
592.7,303.801
592.901,304.322
593.102,305.046
593.303,305.795
593.504,306.253
593.705,306.938
593.906,307.438
594.107,308.063
594.308,308.468
594.509,308.822
594.71,309.142
594.911,309.676
595.112,310.104
595.313,310.524
595.514,311.03
595.715,311.45
595.915,311.956
596.116,312.305
596.317,312.982
596.518,313.596
596.719,314.105
596.92,314.688
597.12,315.197
597.321,315.813
597.522,316.456
597.723,316.975
597.923,317.476
598.124,317.754
598.325,318.452
598.525,318.588
598.726,319.107
598.927,319.657
599.127,320.045
599.328,320.581
599.529,321.131
599.729,321.434
599.93,321.935
600.13,322.362
600.331,322.527
600.531,323.006
600.732,323.308
600.933,323.437
601.133,323.738
601.334,324.17
601.534,324.295
601.734,324.534
601.935,324.817
602.135,325.096
602.336,325.248
602.536,325.469
602.737,325.822
602.937,326.053
603.137,325.869
603.338,325.88
603.538,326.014
603.738,326.404
603.939,326.724
604.139,326.812
604.339,326.933
604.54,326.97
604.74,327.412
604.94,327.584
605.14,327.76
605.341,327.876
605.541,327.963
605.741,327.941
605.941,327.768
606.141,328.056
606.342,328.064
606.542,328.159
606.742,328.154
606.942,328.358
607.142,328.448
607.342,328.568
607.542,328.475
607.742,328.219
607.942,327.837
608.142,327.827
608.343,328.027
608.543,328.144
608.743,328.316
608.943,328.149
609.143,328.114
609.342,328.244
609.542,328.171
609.742,328.156
609.942,328.029
610.142,327.82
610.342,327.819
610.542,327.574
610.742,327.775
610.942,327.65
611.142,327.857
611.341,327.824
611.541,327.656
611.741,327.168
611.941,327.108
612.141,326.899
612.34,326.856
612.54,326.764
612.74,326.91
612.94,326.654
613.139,326.57
613.339,326.253
613.539,326.055
613.738,325.774
613.938,325.717
614.138,325.639
614.337,325.312
614.537,325.182
614.736,324.95
614.936,325.128
615.136,324.766
615.335,324.444
615.535,324.393
615.734,324.205
615.934,324.06
616.133,323.892
616.333,323.842
616.532,323.608
616.732,323.685
616.931,323.507
617.131,323.748
617.33,323.859
617.529,323.9
617.729,323.827
617.928,323.654
618.128,323.443
618.327,322.999
618.526,322.727
618.726,322.538
618.925,322.346
619.124,322.148
619.324,322.055
619.523,322.132
619.722,321.958
619.921,321.82
620.121,321.529
620.32,321.68
620.519,321.633
620.718,321.165
620.917,320.826
621.117,320.658
621.316,320.495
621.515,320.198
621.714,320.17
621.913,319.786
622.112,319.694
622.311,319.136
622.51,318.957
622.709,318.851
622.909,318.883
623.108,318.976
623.307,318.531
623.506,318.402
623.705,318.246
623.904,317.937
624.103,317.657
624.301,317.443
624.5,317.369
624.699,317.238
624.898,316.891
625.097,316.846
625.296,316.824
625.495,316.784
625.694,316.501
625.893,316.479
626.091,316.487
626.29,316.665
626.489,316.248
626.688,316.157
626.887,315.778
627.085,315.529
627.284,314.919
627.483,314.853
627.682,314.531
627.88,313.788
628.079,313.657
628.278,313.611
628.476,313.267
628.675,312.916
628.874,312.812
629.072,312.509
629.271,312.301
629.47,312.128
629.668,311.895
629.867,311.68
630.065,311.206
630.264,310.925
630.462,310.605
630.661,310.357
630.859,310.242
631.058,310.259
631.256,310.217
631.455,310.474
631.653,310.465
631.852,310.257
632.05,309.757
632.249,309.492
632.447,309.522
632.645,309.517
632.844,309.134
633.042,308.903
633.24,308.623
633.439,308.419
633.637,308.183
633.835,307.853
634.034,307.675
634.232,307.228
634.43,307.249
634.628,307.263
634.827,307.19
635.025,307.062
635.223,306.96
635.421,306.599
635.62,306.192
635.818,306.028
636.016,305.668
636.214,305.525
636.412,305.102
636.61,304.79
636.808,304.695
637.006,304.323
637.205,304.16
637.403,304.161
637.601,303.538
637.799,303.239
637.997,303.16
638.195,302.905
638.393,302.32
638.591,302.246
638.789,302.046
638.987,301.926
639.184,301.621
639.382,301.344
639.58,301
639.778,300.658
639.976,300.341
640.174,300.224
640.372,300.505
640.57,300.231
640.767,300.136
640.965,299.767
641.163,299.547
641.361,299.477
641.559,299.597
641.756,299.644
641.954,299.287
642.152,299.353
642.35,299.37
642.547,299.053
642.745,299.025
642.943,299.179
643.14,299.221
643.338,299.295
643.536,299.437
643.733,299.139
643.931,298.872
644.128,298.768
644.326,298.584
644.524,298.528
644.721,298.172
644.919,298.299
645.116,298.297
645.314,298.309
645.511,298.063
645.709,297.969
645.906,298.154
646.104,298.186
646.301,298.352
646.498,298.081
646.696,298.058
646.893,297.885
647.091,297.553
647.288,297.329
647.485,297.379
647.683,297.45
647.88,297.532
648.077,297.629
648.275,297.585
648.472,297.525
648.669,297.41
648.867,297.446
649.064,297.407
649.261,297.597
649.458,297.561
649.655,297.507
649.853,297.333
650.05,297.351
650.247,297.548
650.444,297.727
650.641,297.442
650.838,297.552
651.036,297.446
651.233,297.281
651.43,297.126
651.627,297.403
651.824,297.259
652.021,297.267
652.218,297.312
652.415,297.293
652.612,296.948
652.809,297.17
653.006,296.89
653.203,296.949
653.4,296.956
653.597,297.117
653.794,297.288
653.991,297.405
654.187,297.387
654.384,297.161
654.581,297.145
654.778,296.843
654.975,296.779
655.172,296.793
655.369,296.611
655.565,296.254
655.762,296.027
655.959,295.967
656.156,295.677
656.352,295.14
656.549,295.166
656.746,294.855
656.943,294.469
657.139,294.277
657.336,294.196
657.533,294.099
657.729,293.828
657.926,293.791
658.122,294.027
658.319,294.106
658.516,293.972
658.712,294.083
658.909,293.919
659.105,293.761
659.302,293.545
659.498,293.493
659.695,293.185
659.891,292.9
660.088,292.684
660.284,292.725
660.481,292.637
660.677,292.647
660.874,292.376
661.07,292.269
661.266,292.167
661.463,291.798
661.659,291.631
661.856,291.243
662.052,291.17
662.248,290.738
662.444,290.566
662.641,290.296
662.837,290.128
663.033,290.17
663.23,289.84
663.426,289.357
663.622,289.282
663.818,289.088
664.014,288.904
664.211,288.577
664.407,288.292
664.603,288.14
664.799,287.92
664.995,287.612
665.191,287.254
665.387,286.979
665.584,286.557
665.78,286.192
665.976,285.652
666.172,285.302
666.368,284.928
666.564,284.626
666.76,284.52
666.956,284.387
667.152,283.84
667.348,283.824
667.544,283.671
667.74,283.275
667.936,282.632
668.131,282.109
668.327,281.486
668.523,281.348
668.719,281.136
668.915,280.478
669.111,280.109
669.307,279.825
669.502,279.577
669.698,279.405
669.894,279.025
670.09,278.665
670.285,278.161
670.481,277.818
670.677,277.289
670.873,276.655
671.068,275.615
671.264,275.205
671.46,274.751
671.655,274.179
671.851,273.874
672.047,273.374
672.242,272.65
672.438,272.272
672.633,271.945
672.829,271.366
673.025,270.837
673.22,270.327
673.416,269.768
673.611,269.473
673.807,269.185
674.002,268.519
674.198,268.152
674.393,267.787
674.589,267.217
674.784,266.758
674.979,266.504
675.175,266.108
675.37,265.527
675.566,265.336
675.761,264.923
675.956,264.519
676.152,264.187
676.347,263.78
676.542,263.668
676.738,263.318
676.933,262.55
677.128,262.407
677.323,262.285
677.519,261.791
677.714,261.628
677.909,261.444
678.104,261.265
678.299,261.033
678.494,260.581
678.69,260.206
678.885,259.792
679.08,259.52
679.275,259.431
679.47,258.815
679.665,258.374
679.86,257.561
680.055,257.147
680.25,256.624
680.445,256.332
680.64,255.987
680.835,255.364
681.03,254.851
681.225,254.483
681.42,254.27
681.615,253.619
681.81,252.96
682.005,252.792
682.2,252.219
682.395,251.558
682.59,251.131
682.785,250.728
682.979,250.054
683.174,249.713
683.369,248.959
683.564,248.379
683.759,247.736
683.953,247.386
684.148,246.972
684.343,246.24
684.538,245.836
684.732,244.957
684.927,244.647
685.122,244.418
685.316,243.973
685.511,243.203
685.706,242.517
685.9,242.366
686.095,241.87
686.29,241.224
686.484,240.898
686.679,240.279
686.873,239.919
687.068,239.182
687.262,238.738
687.457,238.076
687.651,237.534
687.846,236.905
688.04,236.702
688.235,236.028
688.429,235.503
688.624,234.668
688.818,234.118
689.013,233.529
689.207,233.033
689.401,232.521
689.596,231.754
689.79,231.318
689.984,230.863
690.179,230.298
690.373,229.904
690.567,229.359
690.762,228.986
690.956,228.419
691.15,227.866
691.344,227.083
691.538,226.444
691.733,225.842
691.927,225.493
692.121,224.73
692.315,224.319
692.509,223.779
692.703,223.227
692.898,222.521
693.092,222.029
693.286,221.356
693.48,220.774
693.674,220.345
693.868,219.786
694.062,219.422
694.256,218.805
694.45,218.204
694.644,217.926
694.838,217.489
695.032,217.173
695.226,216.589
695.42,216.023
695.614,215.846
695.808,215.253
696.002,214.867
696.195,214.397
696.389,213.677
696.583,213.179
696.777,212.802
696.971,212.238
697.165,211.755
697.358,210.866
697.552,210.119
697.746,209.518
697.94,208.919
698.133,208.59
698.327,207.998
698.521,207.614
698.715,206.78
698.908,206.134
699.102,205.839
699.296,205.327
699.489,204.673
699.683,203.9
699.876,203.359
700.07,202.86
700.264,202.331
700.457,201.8
700.651,201.302
700.844,200.962
701.038,200.418
701.231,200.014
701.425,199.525
701.618,199.1
701.812,198.538
702.005,197.98
702.199,197.485
702.392,197.204
702.586,197.111
702.779,196.567
702.972,196.213
703.166,195.927
703.359,195.689
703.552,195.037
703.746,194.615
703.939,194.292
704.132,193.814
704.326,193.455
704.519,193.119
704.712,192.705
704.905,192.348
705.099,191.916
705.292,191.625
705.485,191.541
705.678,191.072
705.871,190.548
706.064,190.169
706.258,189.78
706.451,189.22
706.644,188.953
706.837,188.887
707.03,188.798
707.223,188.618
707.416,188.443
707.609,187.763
707.802,187.573
707.995,187.376
708.188,186.996
708.381,186.607
708.574,186.459
708.767,185.891
708.96,185.352
709.153,185.184
709.346,185.152
709.539,184.573
709.732,184.223
709.924,184.131
710.117,184.128
710.31,183.512
710.503,183.311
710.696,183.34
710.889,183.018
711.081,182.867
711.274,182.709
711.467,182.508
711.66,182.184
711.852,181.923
712.045,181.738
712.238,181.492
712.43,181.461
712.623,180.955
712.816,180.45
713.008,180.398
713.201,180.168
713.394,179.724
713.586,179.508
713.779,179.288
713.971,179.216
714.164,178.973
714.356,178.625
714.549,178.422
714.741,178.218
714.934,178.125
715.126,177.924
715.319,177.65
715.511,177.18
715.704,176.803
715.896,176.81
716.088,176.502
716.281,176.068
716.473,175.9
716.666,175.496
716.858,175.068
717.05,174.631
717.243,174.339
717.435,174.168
717.627,173.865
717.819,173.725
718.012,173.589
718.204,173.463
718.396,173.643
718.588,173.517
718.781,173.414
718.973,173.403
719.165,173.171
719.357,172.937
719.549,172.474
719.741,172.156
719.934,171.825
720.126,171.54
720.318,171.364
720.51,171.031
720.702,170.94
720.894,170.751
721.086,170.943
721.278,170.729
721.47,170.612
721.662,170.367
721.854,170.74
722.046,170.54
722.238,170.615
722.43,170.626
722.622,170.715
722.814,170.204
723.005,170.158
723.197,170.017
723.389,169.704
723.581,169.996
723.773,169.768
723.965,169.766
724.156,169.632
724.348,169.525
724.54,169.457
724.732,169.243
724.923,169.111
725.115,169.204
725.307,169.191
725.499,169.302
725.69,169.006
725.882,169.177
726.074,169.021
726.265,169.259
726.457,169.039
726.648,169.09
726.84,168.822
727.032,168.965
727.223,168.845
727.415,168.888
727.606,169.147
727.798,169.226
727.989,169.067
728.181,168.988
728.372,169.199
728.564,169.07
728.755,169.219
728.947,169.008
729.138,168.849
729.329,168.992
729.521,169.094
729.712,168.987
729.904,169.088
730.095,169.362
730.286,169.523
730.478,169.563
730.669,169.646
730.86,170.058
731.051,170.057
731.243,169.964
731.434,170.218
731.625,170.692
731.816,170.611
732.008,170.889
732.199,171.23
732.39,171.471
732.581,171.533
732.772,171.408
732.963,171.745
733.154,171.851
733.346,171.891
733.537,172.021
733.728,171.981
733.919,172.215
734.11,172.631
734.301,172.565
734.492,172.702
734.683,172.807
734.874,173.007
735.065,173.199
735.256,173.312
735.447,173.502
735.638,173.996
735.829,174.102
736.019,174.368
736.21,174.837
736.401,175.034
736.592,175.3
736.783,175.523
736.974,175.949
737.164,175.933
737.355,176.556
737.546,176.774
737.737,176.879
737.928,176.72
738.118,176.974
738.309,177.503
738.5,177.713
738.69,177.705
738.881,177.884
739.072,177.979
739.262,178.161
739.453,178.283
739.644,178.332
739.834,178.284
740.025,178.597
740.215,178.828
740.406,179.101
740.596,179.009
740.787,178.887
740.978,178.869
741.168,178.998
741.358,179.059
741.549,179.276
741.739,178.981
741.93,178.94
742.12,178.977
742.311,178.926
742.501,178.748
742.691,178.654
742.882,178.872
743.072,178.708
743.263,178.607
743.453,178.434
743.643,178.476
743.833,178.575
744.024,178.233
744.214,178.311
744.404,178.232
744.594,178.189
744.785,178.275
744.975,178.374
745.165,178.408
745.355,178.113
745.545,178.026
745.736,178.06
745.926,178.03
746.116,178.27
746.306,178.231
746.496,178.296
746.686,178.396
746.876,178.378
747.066,178.292
747.256,178.834
747.446,179.232
747.636,179.31
747.826,179.453
748.016,179.784
748.206,180.154
748.396,180.339
748.586,180.475
748.776,181.035
748.966,181.403
749.156,181.707
749.346,182.038
749.535,182.399
749.725,182.867
749.915,183.303
750.105,183.742
750.295,184.332
750.484,184.72
750.674,185.265
750.864,185.612
751.054,186.387
751.243,186.87
751.433,187.323
751.623,187.666
751.812,188.147
752.002,188.615
752.192,189.099
752.381,189.424
752.571,189.858
752.761,190.708
752.95,191.169
753.14,191.56
753.329,192.06
753.519,192.464
753.708,193.273
753.898,193.754
754.087,194.149
754.277,194.446
754.466,195.186
754.656,195.6
754.845,196.139
755.035,196.737
755.224,197.521
755.413,198.283
755.603,198.674
755.792,199.11
755.982,199.783
756.171,200.203
756.36,200.693
756.549,201.015
756.739,201.575
756.928,202.247
757.117,202.809
757.307,203.407
757.496,203.975
757.685,204.378
757.874,205.243
758.063,205.928
758.253,206.393
758.442,206.815
758.631,207.124
758.82,208.041
759.009,208.539
759.198,209.041
759.387,209.328
759.576,209.861
759.765,210.435
759.954,210.982
760.143,210.938
760.332,211.214
760.521,211.795
760.71,212.108
760.899,212.504
761.088,213.237
761.277,213.804
761.466,214.069
761.655,214.655
761.844,215.099
762.033,215.899
762.222,216.085
762.411,216.374
762.599,217.013
762.788,217.371
762.977,217.633
763.166,218.233
763.355,218.777
763.543,219.319
763.732,220.088
763.921,220.663
764.109,221.123
764.298,221.442
764.487,221.746
764.675,222.35
764.864,222.653
765.053,223.074
765.241,223.32
765.43,223.414
765.619,223.744
765.807,224.064
765.996,224.025
766.184,224.521
766.373,225.144
766.561,225.362
766.75,225.646
766.938,225.797
767.127,226.473
767.315,226.988
767.504,227.275
767.692,227.502
767.881,227.876
768.069,228.318
768.257,228.41
768.446,228.653
768.634,229.109
768.822,229.076
769.011,229.233
769.199,229.524
769.387,229.904
769.576,229.882
769.764,229.734
769.952,229.827
770.14,229.954
770.328,229.964
770.517,230.257
770.705,230.539
770.893,230.862
771.081,230.996
771.269,231.033
771.457,231.208
771.646,231.425
771.834,231.828
772.022,231.996
772.21,231.895
772.398,232.018
772.586,232.132
772.774,232.398
772.962,232.324
773.15,232.631
773.338,232.644
773.526,232.576
773.714,232.608
773.902,232.959
774.09,233.388
774.278,233.342
774.465,233.51
774.653,233.517
774.841,233.407
775.029,233.334
775.217,233.422
775.405,233.154
775.592,233.274
775.78,233.474
775.968,233.778
776.156,233.681
776.343,233.535
776.531,233.57
776.719,233.793
776.907,233.89
777.094,233.98
777.282,234.035
777.47,234.249
777.657,234.583
777.845,234.817
778.032,235.074
778.22,235.12
778.408,235.244
778.595,235.407
778.783,235.817
778.97,235.934
779.158,235.824
779.345,235.932
779.533,236.091
779.72,236.495
779.908,236.523
780.095,236.803
780.282,237.027
780.47,237.282
780.657,237.553
780.845,237.374
781.032,237.724
781.219,238.142
781.407,238.472
781.594,238.548
781.781,238.637
781.969,238.789
782.156,238.91
782.343,239.131
782.53,239.452
782.718,239.813
782.905,240.168
783.092,240.3
783.279,240.588
783.466,240.727
783.653,241.011
783.841,241.419
784.028,241.367
784.215,241.538
784.402,241.78
784.589,241.878
784.776,242.021
784.963,242.054
785.15,241.942
785.337,241.896
785.524,241.769
785.711,241.603
785.898,241.87
786.085,241.719
786.272,241.539
786.459,241.42
786.646,241.371
786.833,241.098
787.02,240.841
787.206,240.816
787.393,240.556
787.58,240.134
787.767,239.841
787.954,239.425
788.14,239.005
788.327,238.753
788.514,238.365
788.701,237.925
788.887,237.261
789.074,237.115
789.261,236.647
789.448,236.128
789.634,235.956
789.821,235.506
790.008,234.967
790.194,234.6
790.381,234.577
790.567,233.995
790.754,233.546
790.94,233.38
791.127,232.744
791.314,232.568
791.5,231.691
791.687,231.229
791.873,231.043
792.059,230.898
792.246,230.283
792.432,229.912
792.619,229.403
792.805,228.918
792.992,228.038
793.178,227.265
793.364,227.088
793.551,226.724
793.737,226.135
793.923,225.804
794.11,225.61
794.296,225.432
794.482,224.703
794.668,223.942
794.855,223.422
795.041,222.823
795.227,222.351
795.413,222.065
795.599,221.519
795.786,221.041
795.972,220.467
796.158,219.923
796.344,219.618
796.53,219.147
796.716,218.31
796.902,217.821
797.088,217.294
797.274,216.625
797.46,216.093
797.646,215.5
797.832,215.329
798.018,215.039
798.204,214.485
798.39,213.95
798.576,213.299
798.762,212.825
798.948,212.09
799.134,212.034
799.32,211.286
799.506,210.85
799.692,210.35
799.877,210.074
800.063,209.813
800.249,209.379
800.435,208.961
800.621,208.569
800.806,207.98
800.992,207.216
801.178,206.383
801.363,205.369
801.549,204.888
801.735,204.478
801.92,204.106
802.106,203.612
802.292,202.975
802.477,202.41
802.663,201.845
802.849,201.295
803.034,201.314
803.22,201.008
803.405,200.284
803.591,200.228
803.776,199.683
803.962,199.173
804.147,198.804
804.333,198.297
804.518,197.946
804.703,197.243
804.889,196.555
805.074,196.237
805.26,195.832
805.445,195.324
805.63,194.673
805.816,194.702
806.001,194.224
806.186,193.79
806.372,193.658
806.557,193.173
806.742,192.806
806.927,192.606
807.113,192.454
807.298,192.055
807.483,191.758
807.668,191.418
807.853,191.123
808.039,190.645
808.224,190.252
808.409,189.846
808.594,189.325
808.779,189.087
808.964,188.551
809.149,188.019
809.334,187.386
809.519,187.054
809.704,186.594
809.889,186.318
810.074,185.92
810.259,185.602
810.444,185.479
810.629,184.932
810.814,184.625
810.999,184.412
811.184,183.915
811.369,183.312
811.554,182.707
811.738,182.444
811.923,181.88
812.108,181.362
812.293,180.879
812.478,180.624
812.662,180.279
812.847,179.961
813.032,179.658
813.217,179.125
813.401,178.7
813.586,178.479
813.771,178.192
813.955,177.677
814.14,177.405
814.325,176.962
814.509,176.604
814.694,176.304
814.878,176.063
815.063,175.589
815.248,175.045
815.432,174.368
815.617,174.226
815.801,173.897
815.986,173.663
816.17,173.184
816.355,172.981
816.539,172.675
816.723,172.47
816.908,171.967
817.092,171.603
817.277,171.343
817.461,171.16
817.645,170.902
817.83,170.497
818.014,170.222
818.198,170.087
818.383,169.669
818.567,169.243
818.751,168.731
818.935,168.404
819.12,168.261
819.304,168.088
819.488,167.884
819.672,167.444
819.856,166.82
820.041,166.427
820.225,165.741
820.409,165.383
820.593,165.113
820.777,165.008
820.961,164.697
821.145,164.175
821.329,163.989
821.513,163.719
821.697,163.241
821.881,162.842
822.065,162.565
822.249,162.347
822.433,161.841
822.617,161.676
822.801,161.407
822.985,161.371
823.169,160.858
823.353,160.493
823.536,160.452
823.72,160.324
823.904,159.837
824.088,159.674
824.272,159.239
824.456,158.798
824.639,158.57
824.823,158.295
825.007,157.696
825.19,157.609
825.374,157.392
825.558,157.297
825.742,156.892
825.925,156.664
826.109,156.53
826.292,156.007
826.476,155.692
826.66,155.574
826.843,155.16
827.027,154.933
827.21,154.859
827.394,154.532
827.577,153.904
827.761,153.78
827.944,153.507
828.128,152.999
828.311,152.818
828.495,152.245
828.678,151.918
828.862,151.613
829.045,151.355
829.228,150.914
829.412,150.507
829.595,150.215
829.778,150.204
829.962,149.986
830.145,149.919
830.328,149.915
830.512,149.368
830.695,148.857
830.878,148.534
831.061,148.077
831.244,147.582
831.428,146.997
831.611,146.689
831.794,146.457
831.977,146.077
832.16,145.783
832.343,145.402
832.526,145.245
832.709,144.775
832.893,144.322
833.076,144.13
833.259,143.896
833.442,143.573
833.625,142.928
833.808,142.802
833.991,142.37
834.174,142.102
834.356,142.129
834.539,141.592
834.722,141.552
834.905,140.919
835.088,140.67
835.271,140.306
835.454,140.257
835.637,140.014
835.819,139.764
836.002,139.543
836.185,139.153
836.368,139.208
836.551,138.859
836.733,138.244
836.916,137.784
837.099,137.084
837.281,136.728
837.464,136.532
837.647,136.249
837.829,135.926
838.012,135.719
838.195,135.529
838.377,135.296
838.56,134.931
838.742,134.387
838.925,134.115
839.107,133.662
839.29,133.369
839.472,132.971
839.655,132.723
839.837,132.47
840.02,131.966
840.202,131.493
840.385,131.337
840.567,130.921
840.749,130.912
840.932,130.75
841.114,130.326
841.297,129.985
841.479,129.801
841.661,129.557
841.843,129.323
842.026,128.994
842.208,128.761
842.39,128.624
842.572,128.505
842.755,127.909
842.937,127.73
843.119,127.348
843.301,126.852
843.483,126.596
843.666,126.446
843.848,126.06
844.03,125.476
844.212,125.339
844.394,125.085
844.576,124.617
844.758,124.141
844.94,123.881
845.122,123.728
845.304,123.788
845.486,123.693
845.668,123.514
845.85,123.277
846.032,123.091
846.214,122.975
846.396,122.613
846.578,122.251
846.759,121.922
846.941,121.565
847.123,121.169
847.305,120.783
847.487,120.662
847.669,120.243
847.85,119.883
848.032,119.547
848.214,119.293
848.396,118.853
848.577,118.431
848.759,118.37
848.941,118.185
849.122,117.994
849.304,117.547
849.486,117.414
849.667,117.319
849.849,117.034
850.03,117.03
850.212,116.877
850.394,116.499
850.575,115.974
850.757,115.912
850.938,115.706
851.12,115.543
851.301,115.479
851.483,115.262
851.664,114.854
851.845,114.586
852.027,114.404
852.208,114.326
852.39,113.79
852.571,113.505
852.752,113.199
852.934,113.329
853.115,113.023
853.296,112.842
853.478,112.842
853.659,112.575
853.84,112.272
854.021,111.951
854.203,111.55
854.384,111.465
854.565,111.391
854.746,111.118
854.927,110.879
855.108,110.796
855.29,110.681
855.471,110.523
855.652,110.565
855.833,110.299
856.014,110.086
856.195,109.749
856.376,109.651
856.557,109.772
856.738,109.657
856.919,109.571
857.1,109.296
857.281,108.866
857.462,108.705
857.643,108.155
857.824,107.9
858.005,107.635
858.185,107.416
858.366,107.313
858.547,107.163
858.728,107.041
858.909,106.863
859.09,106.797
859.27,106.579
859.451,106.643
859.632,106.227
859.813,105.972
859.993,105.817
860.174,105.906
860.355,105.526
860.535,105.296
860.716,104.888
860.897,104.921
861.077,104.77
861.258,104.473
861.438,104.346
861.619,104.507
861.8,104.321
861.98,104.051
862.161,103.586
862.341,103.76
862.522,103.717
862.702,103.356
862.883,103.467
863.063,103.383
863.243,103.29
863.424,103.236
863.604,102.972
863.785,102.519
863.965,102.509
864.145,102.462
864.326,102.202
864.506,101.941
864.686,101.922
864.867,101.806
865.047,101.675
865.227,101.674
865.407,101.763
865.588,101.513
865.768,101.278
865.948,101.026
866.128,100.829
866.308,100.377
866.488,100.471
866.669,100.49
866.849,100.245
867.029,100.323
867.209,100.182
867.389,100.127
867.569,100.065
867.749,99.757
867.929,99.6692
868.109,99.5141
868.289,99.5903
868.469,99.39
868.649,99.3229
868.829,99.1567
869.009,98.9119
869.189,98.8168
869.369,98.8108
869.548,98.5522
869.728,98.5235
869.908,98.4167
870.088,98.2631
870.268,98.3672
870.448,98.4206
870.627,98.3199
870.807,98.2007
870.987,98.2841
871.167,98.0685
871.346,98.1312
871.526,97.7752
871.706,97.8066
871.885,97.6725
872.065,97.6196
872.245,97.3137
872.424,97.1625
872.604,97.2067
872.783,96.8943
872.963,96.7195
873.142,96.6913
873.322,96.8421
873.501,96.9261
873.681,96.7058
873.86,96.391
874.04,96.4391
874.219,96.4299
874.399,96.4988
874.578,96.361
874.758,96.3995
874.937,96.2655
875.116,96.4034
875.296,96.1705
875.475,96.3164
875.654,96.2031
875.834,96.3382
876.013,96.0079
876.192,95.949
876.372,95.9496
876.551,95.8275
876.73,95.8106
876.909,95.929
877.088,95.7093
877.268,95.6293
877.447,95.4316
877.626,95.4866
877.805,95.0911
877.984,95.1968
878.163,95.2649
878.342,95.0534
878.521,94.8677
878.7,94.4958
878.879,94.4103
879.059,94.4808
879.238,94.3153
879.417,94.1034
879.595,94.1111
879.774,94.008
879.953,93.6734
880.132,93.4884
880.311,93.3677
880.49,93.2758
880.669,93.0276
880.848,92.8886
881.027,92.8249
881.205,92.563
881.384,92.2088
881.563,91.8139
881.742,91.6079
881.921,91.3269
882.099,91.4351
882.278,91.2973
882.457,91.1616
882.635,91.0169
882.814,91.1345
882.993,91.1164
883.171,91.0288
883.35,90.793
883.529,90.8168
883.707,90.7628
883.886,91.0563
884.064,91.0408
884.243,91.0453
884.422,90.7577
884.6,90.7602
884.779,90.8627
884.957,90.4859
885.136,90.3773
885.314,90.2196
885.492,90.3539
885.671,90.3111
885.849,90.0529
886.028,89.9901
886.206,89.5438
886.384,89.3545
886.563,89.2891
886.741,89.5768
886.919,89.3965
887.098,89.3551
887.276,89.0945
887.454,89.0338
887.632,88.8895
887.811,88.7269
887.989,88.5639
888.167,88.5965
888.345,88.7032
888.523,88.711
888.702,88.7079
888.88,88.6238
889.058,88.2225
889.236,88.2256
889.414,88.2085
889.592,88.0353
889.77,87.9476
889.948,88.0214
890.126,88.1227
890.304,88.0952
890.482,88.0059
890.66,87.8425
890.838,87.8517
891.016,87.7704
891.194,87.696
891.372,87.5808
891.55,87.5425
891.728,87.2909
891.905,87.2462
892.083,86.9642
892.261,86.9308
892.439,87.1126
892.617,86.941
892.794,86.6742
892.972,86.5921
893.15,86.6736
893.328,86.9014
893.505,86.6394
893.683,86.7798
893.861,86.8505
894.038,86.9889
894.216,87.1358
894.394,87.1358
894.571,87.1317
894.749,87.2383
894.926,87.0712
895.104,87.0215
895.281,86.9528
895.459,86.6302
895.637,86.6954
895.814,86.6539
895.992,86.8104
896.169,86.2738
896.346,86.2508
896.524,86.265
896.701,86.2924
896.879,86.1328
897.056,86.0175
897.233,85.9836
897.411,86.1927
897.588,86.0223
897.765,85.7163
897.943,85.5928
898.12,85.6615
898.297,85.5162
898.475,85.1824
898.652,85.4505
898.829,85.2796
899.006,85.0458
899.183,84.7137
899.361,84.5234
899.538,84.4987
899.715,84.5788
899.892,84.6008
900.069,84.4759
900.246,84.3328
900.423,84.2996
900.6,83.9844
900.777,84.1113
900.954,84.1227
901.131,84.0773
901.308,83.75
901.485,83.6424
901.662,83.6337
901.839,83.7535
902.016,83.6577
902.193,83.5269
902.37,83.3465
902.547,83.3082
902.724,83.3531
902.9,83.1144
903.077,83.0784
903.254,83.0299
903.431,83.0733
903.608,83.0223
903.784,82.94
903.961,82.8787
904.138,82.5318
904.315,82.6761
904.491,82.4477
904.668,82.5088
904.845,82.475
905.021,82.295
905.198,82.3796
905.375,82.3857
905.551,82.3892
905.728,82.2531
905.904,82.2404
906.081,82.1224
906.257,81.9325
906.434,81.9046
906.61,81.5482
906.787,81.4626
906.963,81.3204
907.14,81.2541
907.316,81.1217
907.493,80.9426
907.669,80.7445
907.845,80.6785
908.022,80.9022
908.198,80.8792
908.374,80.524
908.551,80.3748
908.727,80.6114
908.903,80.557
909.08,80.4064
909.256,80.3396
909.432,80.4553
909.608,80.4967
909.785,80.3439
909.961,80.23
910.137,80.0146
910.313,80.0818
910.489,80.0406
910.665,79.9294
910.841,79.6594
911.018,79.7289
911.194,79.3898
911.37,79.4289
911.546,79.2846
911.722,79.3276
911.898,79.3429
912.074,79.1379
912.25,78.9382
912.426,78.7503
912.602,78.5555
912.777,78.4224
912.953,78.3813
913.129,78.6148
913.305,78.6079
913.481,78.5987
913.657,78.4811
913.833,78.3
914.008,78.4
914.184,78.2531
914.36,78.43
914.536,78.3259
914.712,78.0618
914.887,78.0609
915.063,77.9896
915.239,78.1408
915.414,78.0253
915.59,78.0049
915.766,78.008
915.941,78.2187
916.117,78.0234
916.292,78.2071
916.468,78.3556
916.644,78.3974
916.819,78.3403
916.995,78.6745
917.17,78.5262
917.346,78.5203
917.521,78.5573
917.697,78.2908
917.872,78.247
918.048,78.1702
918.223,77.9929
918.398,78.1264
918.574,77.9913
918.749,78.1382
918.924,78.0819
919.1,77.8021
919.275,77.5682
919.45,77.2373
919.626,77.2473
919.801,77.0704
919.976,77.0718
920.151,77.1071
920.327,76.8862
920.502,76.8813
920.677,76.749
920.852,76.7364
921.027,76.4185
921.202,76.2329
921.378,76.206
921.553,76.0855
921.728,76.228
921.903,76.2695
922.078,76.1149
922.253,75.7941
922.428,75.8061
922.603,75.8312
922.778,75.9327
922.953,75.83
923.128,75.7442
923.303,75.6692
923.478,76.0101
923.652,76.1228
923.827,75.8901
924.002,75.7572
924.177,75.5649
924.352,75.4098
924.527,75.3584
924.702,75.2337
924.876,75.032
925.051,74.8629
925.226,74.7956
925.401,74.4814
925.575,74.373
925.75,74.4761
925.925,74.215
926.099,73.9348
926.274,73.8735
926.449,73.8896
926.623,73.8866
926.798,73.6734
926.972,73.768
927.147,73.8711
927.322,73.6542
927.496,73.7712
927.671,73.7258
927.845,73.4509
928.02,73.2216
928.194,73.276
928.368,73.1593
928.543,72.8742
928.717,72.6223
928.892,72.4573
929.066,72.2557
929.24,72.1312
929.415,71.8251
929.589,71.6421
929.763,71.432
929.938,71.3297
930.112,71.2024
930.286,71.1119
930.461,71.1608
930.635,70.9564
930.809,70.8472
930.983,70.6797
931.157,70.4655
931.332,70.245
931.506,70.3806
931.68,70.3064
931.854,70.392
932.028,70.2448
932.202,70.1825
932.376,70.2326
932.55,70.198
932.724,69.6563
932.898,69.5942
933.072,69.6846
933.246,69.9165
933.42,69.6359
933.594,69.4157
933.768,69.3845
933.942,69.0582
934.116,68.9323
934.29,68.9003
934.464,69.0002
934.638,69.0226
934.811,68.9716
934.985,68.7978
935.159,68.4284
935.333,68.3094
935.507,68.2132
935.68,68.0393
935.854,67.9071
936.028,67.5994
936.201,67.5554
936.375,67.6302
936.549,67.6173
936.722,67.6253
936.896,67.5016
937.07,67.1904
937.243,67.4296
937.417,67.5336
937.59,67.3292
937.764,67.0571
937.938,66.9385
938.111,66.8595
938.285,66.9389
938.458,66.7246
938.631,66.6661
938.805,66.65
938.978,66.5966
939.152,66.6113
939.325,66.7963
939.499,66.7364
939.672,66.6653
939.845,66.5503
940.019,66.3739
940.192,66.4152
940.365,66.0124
940.538,66.1432
940.712,66.1361
940.885,66.1542
941.058,66.3814
941.231,66.4211
941.405,66.4389
941.578,66.2027
941.751,66.2278
941.924,66.195
942.097,65.9863
942.27,65.9219
942.443,66.1695
942.617,66.1041
942.79,66.2987
942.963,66.153
943.136,66.067
943.309,65.9979
943.482,65.9844
943.655,66.1028
943.828,65.8243
944.001,65.8121
944.173,65.6918
944.346,65.7104
944.519,65.4681
944.692,65.4601
944.865,65.3093
945.038,65.4436
945.211,65.3805
945.383,65.3081
945.556,65.15
945.729,65.1979
945.902,65.1785
946.075,65.0776
946.247,65.1563
946.42,65.1416
946.593,65.0628
946.765,65.0913
946.938,64.9362
947.111,65.052
947.283,65.1333
947.456,64.9497
947.628,64.785
947.801,65.1573
947.974,64.8272
948.146,64.5981
948.319,64.3999
948.491,64.6854
948.664,64.5223
948.836,64.5058
949.009,64.5297
949.181,64.5378
949.353,64.4166
949.526,64.2532
949.698,64.2947
949.871,64.3161
950.043,64.2849
950.215,64.0551
950.388,63.9373
950.56,64.1731
950.732,64.0885
950.904,63.9715
951.077,64.0914
951.249,64.051
951.421,64.0382
951.593,64.0867
951.766,64.2544
951.938,64.2656
952.11,64.3173
952.282,64.3442
952.454,64.3072
952.626,64.5633
952.798,64.6764
952.97,64.6226
953.142,64.7508
953.314,64.4372
953.487,64.3793
953.659,64.3876
953.83,64.4186
954.002,64.4465
954.174,64.4463
954.346,64.3986
954.518,64.2338
954.69,64.3263
954.862,64.5064
955.034,64.5478
955.206,64.6929
955.378,64.8111
955.549,64.8296
955.721,64.6116
955.893,64.6043
956.065,64.4993
956.236,64.6723
956.408,64.7956
956.58,64.7137
956.752,64.6466
956.923,64.9006
957.095,64.8779
957.267,64.8125
957.438,64.5441
957.61,64.4431
957.781,64.3669
957.953,64.3122
958.125,64.3559
958.296,64.1621
958.468,64.0958
958.639,64.049
958.811,64.1875
958.982,64.4985
959.154,64.5541
959.325,64.5195
959.496,64.4551
959.668,64.4078
959.839,64.4231
960.011,64.5327
960.182,64.8201
960.353,64.7815
960.525,64.4961
960.696,64.3913
960.867,64.6911
961.038,64.6862
961.21,64.8728
961.381,64.6737
961.552,64.8127
961.723,64.6931
961.895,64.4946
962.066,64.3559
962.237,64.4694
962.408,64.4616
962.579,64.4802
962.75,64.5509
962.921,64.7004
963.092,64.8881
963.263,64.8025
963.434,64.7275
963.605,64.5704
963.776,64.4954
963.947,64.5187
964.118,64.4072
964.289,64.1941
964.46,64.1765
964.631,64.0433
964.802,63.9051
964.973,63.9192
965.144,63.6724
965.315,63.6526
965.485,63.5063
965.656,63.4745
965.827,63.5644
965.998,63.3013
966.169,63.0073
966.339,63.1528
966.51,63.0056
966.681,63.2337
966.851,63.3533
967.022,63.0922
967.193,62.9761
967.363,63.3137
967.534,63.027
967.705,63.0594
967.875,62.7754
968.046,62.7982
968.216,62.7709
968.387,63.0209
968.557,62.8308
968.728,62.8927
968.898,63.0641
969.069,63.0044
969.239,63.0456
969.41,63.1336
969.58,63.0965
969.751,63.1161
969.921,63.3818
970.091,63.416
970.262,63.6848
970.432,63.997
970.602,64.1382
970.773,64.1413
970.943,63.9907
971.113,64.1833
971.283,64.0848
971.454,64.0011
971.624,64.3249
971.794,64.1751
971.964,64.148
972.134,63.9964
972.305,64.0634
972.475,64.0889
972.645,64.0801
972.815,64.1068
972.985,64.2737
973.155,64.0958
973.325,64.2128
973.495,64.2721
973.665,64.2817
973.835,64.1244
974.005,63.9575
974.175,64.049
974.345,63.8358
974.515,63.9016
974.685,63.8686
974.855,64.0392
975.024,64.0598
975.194,63.6832
975.364,63.4878
975.534,63.2671
975.704,63.0138
975.874,62.9196
976.043,62.9453
976.213,62.9164
976.383,62.801
976.553,62.8664
976.722,63.1684
976.892,63.0672
977.062,63.0983
977.231,62.7173
977.401,63.0093
977.57,62.8304
977.74,62.8626
977.91,62.7576
978.079,62.7674
978.249,62.6808
978.418,62.6278
978.588,62.6025
978.757,62.6284
978.927,62.747
979.096,62.5569
979.266,62.6649
979.435,62.6019
979.604,62.8379
979.774,62.9329
979.943,62.9594
980.113,62.9463
980.282,62.8536
980.451,62.6989
980.621,62.7637
980.79,62.6239
980.959,62.6083
981.128,62.5799
981.298,62.5492
981.467,62.3959
981.636,62.2849
981.805,62.3969
981.974,62.5322
982.143,62.0495
982.313,61.9464
982.482,61.8622
982.651,61.8488
982.82,61.6788
982.989,61.7622
983.158,61.6611
983.327,61.5698
983.496,61.686
983.665,61.6095
983.834,61.5851
984.003,61.5894
984.172,61.5185
984.341,61.5058
984.51,61.4561
984.679,61.4604
984.847,61.2116
985.016,61.1602
985.185,61.0184
985.354,60.8607
985.523,60.792
985.692,60.7851
985.86,60.7133
986.029,60.6233
986.198,60.4272
986.366,60.3645
986.535,60.222
986.704,60.2632
986.873,60.1444
987.041,59.984
987.21,59.961
987.378,60.0366
987.547,60.1917
987.716,60.1992
987.884,59.7782
988.053,59.8454
988.221,59.9041
988.39,60.211
988.558,60.06
988.727,59.9058
988.895,59.7548
989.064,59.5946
989.232,59.4578
989.4,59.4067
989.569,59.3193
989.737,59.3686
989.905,59.475
990.074,59.5571
990.242,59.5797
990.41,59.3109
990.579,59.067
990.747,58.9786
990.915,58.9107
991.083,58.5975
991.252,58.5453
991.42,58.6458
991.588,58.8153
991.756,58.9757
991.924,58.9189
992.092,58.8793
992.261,58.9614
992.429,58.9221
992.597,58.8934
992.765,58.8687
992.933,58.7342
993.101,58.2876
993.269,58.2091
993.437,58.1345
993.605,58.1194
993.773,58.2168
993.941,57.945
994.109,57.986
994.277,57.8333
994.444,57.6571
994.612,57.6864
994.78,57.8849
994.948,57.7243
995.116,57.6073
995.284,57.1965
995.451,57.2196
995.619,57.1855
995.787,57.0849
995.955,57.0954
996.122,57.2371
996.29,57.2776
996.458,57.3035
996.625,57.2689
996.793,57.3314
996.961,57.2263
997.128,56.932
997.296,57.0783
997.463,57.0771
997.631,57.1662
997.798,57.3834
997.966,57.3816
998.133,57.5114
998.301,57.8009
998.468,57.8994
998.636,58.0899
998.803,57.9625
998.971,58.03
999.138,58.0872
999.305,58.1164
999.473,58.482
999.64,58.6254
999.807,58.6199
999.975,58.7363
1000.14,58.8253
1000.31,58.6737
1000.48,58.8993
1000.64,58.702
1000.81,58.484
1000.98,58.6433
1001.15,58.7377
1001.31,58.4406
1001.48,58.5539
1001.65,58.321
1001.81,58.2342
1001.98,58.3821
1002.15,58.5339
1002.32,58.5985
1002.48,58.827
1002.65,58.754
1002.82,58.6666
1002.98,58.6173
1003.15,58.5107
1003.32,58.4114
1003.48,58.432
1003.65,58.5598
1003.82,58.2272
1003.98,58.2876
1004.15,58.0656
1004.32,57.987
1004.49,57.7514
1004.65,57.8148
1004.82,57.7663
1004.99,57.5682
1005.15,57.8119
1005.32,57.7337
1005.49,57.4724
1005.65,57.492
1005.82,57.1876
1005.99,57.3257
1006.15,57.2585
1006.32,56.972
1006.49,57.0959
1006.65,56.9587
1006.82,56.8281
1006.99,56.6942
1007.15,56.7189
1007.32,56.5575
1007.49,56.3333
1007.65,56.3704
1007.82,56.3272
1007.98,56.5734
1008.15,56.7073
1008.32,56.7474
1008.48,56.8144
1008.65,56.899
1008.82,57.0201
1008.98,57.1293
1009.15,57.2941
1009.32,57.4015
1009.48,57.3595
1009.65,57.5122
1009.81,57.6267
1009.98,57.6723
1010.15,57.6844
1010.31,57.588
1010.48,57.2621
1010.65,57.3243
1010.81,57.3659
1010.98,57.5328
1011.14,57.214
1011.31,57.274
1011.48,57.2395
1011.64,57.2295
1011.81,57.0635
1011.97,57.1825
1012.14,57.1425
1012.31,57.0223
1012.47,56.8458
1012.64,56.6145
1012.8,56.5063
1012.97,56.3639
1013.14,56.1381
1013.3,56.1799
1013.47,55.9991
1013.63,55.9696
1013.8,55.9048
1013.97,55.8985
1014.13,56.1434
1014.3,55.9349
1014.46,55.7385
1014.63,55.5054
1014.79,55.6242
1014.96,55.7418
1015.13,55.9498
1015.29,56.0417
1015.46,55.9093
1015.62,55.9066
1015.79,55.8451
1015.95,56.037
1016.12,56.1065
1016.29,56.0953
1016.45,56.0766
1016.62,55.8178
1016.78,55.8826
1016.95,55.9278
1017.11,55.8893
1017.28,55.755
1017.44,55.8616
1017.61,55.9419
1017.78,55.9003
1017.94,55.8652
1018.11,56.1546
1018.27,56.1059
1018.44,56.0821
1018.6,56.0397
1018.77,55.9137
1018.93,55.9296
1019.1,55.6937
1019.26,55.4108
1019.43,55.3605
1019.59,55.3313
1019.76,55.2213
1019.92,55.1031
1020.09,55.2388
1020.25,55.1913
1020.42,55.1253
1020.59,55.0703
1020.75,54.8441
1020.92,54.8027
1021.08,54.6615
1021.25,54.7834
1021.41,55.2576
1021.58,55.3515
1021.74,55.3277
1021.91,55.0595
1022.07,55.1325
1022.24,55.0754
1022.4,55.1993
1022.57,55.0976
1022.73,55.1351
1022.89,54.8869
1023.06,55.0269
1023.22,54.9244
1023.39,55.0251
1023.55,54.9945
1023.72,55.0776
1023.88,55.1865
1024.05,55.2661
1024.21,55.3203
1024.38,55.3403
1024.54,55.505
1024.71,55.6164
1024.87,55.4695
1025.04,55.2977
1025.2,55.1386
1025.37,55.3554
1025.53,55.5355
1025.7,55.4772
1025.86,55.3163
1026.02,55.0677
1026.19,54.9992
1026.35,55.1598
1026.52,55.3205
1026.68,55.4434
1026.85,55.4469
1027.01,55.6456
1027.18,55.6344
1027.34,55.8473
1027.5,54.1904
1027.67,33.9974
1027.83,69.714
1028,54.3133
1028.16,44.524
1028.33,47.8417
1028.49,69.9598
1028.65,54.2314
1028.82,38.0114
1028.98,36.2092
1029.15,26.8705
1029.31,18.7196
1029.48,39.8137
1029.64,37.438
1029.8,98.3856
1029.97,49.2343
1030.13,76.9638
1030.3,40.9605
1030.46,38.9535
1030.62,74.4243
1030.79,40.0594
1030.95,4.8753
1031.12,-1.84203
1031.28,67.666
1031.44,77.2505
1031.61,88.2686
1031.77,51.2004
1031.94,40.3871
1032.1,68.9767
1032.26,36.414
1032.43,65.7
1032.59,55.3373
1032.76,55.0096
1032.92,79.6262
1033.08,25.1502
1033.25,54.1085
1033.41,73.3594
1033.57,66.5192
1033.74,12.9443
1033.9,60.2933
1034.07,89.5793
1034.23,70.2055
1034.39,29.6557
1034.56,113.254
1034.72,38.8306
1034.88,58.0815
1035.05,44.524
1035.21,28.345
1035.37,52.8387
1035.54,23.8805
1035.7,18.2281
1035.86,61.7679
1036.03,57.2623
1036.19,44.5649
1036.35,20.9314
1036.52,69.1406
1036.68,63.5701
1036.84,59.597
1037.01,41.8207
1037.17,18.4329
1037.33,58.1225
1037.5,46.8177
1037.66,69.2225
1037.82,100.27
1037.99,82.821
1038.15,62.2594
1038.31,57.7948
1038.48,37.2742
1038.64,22.7336
1038.8,57.5491
1038.97,26.8295
1039.13,62.669
1039.29,24.2081
1039.46,74.3014
1039.62,49.1114
1039.78,65.4542
1039.95,63.5701
1040.11,62.3003
1040.27,63.2424
1040.43,51.0365
1040.6,46.8587
1040.76,47.9646
1040.92,56.0745
1041.09,56.8528
1041.25,54.1085
1041.41,51.8557
1041.57,55.3782
1041.74,92.1597
1041.9,78.6841
1042.06,59.1874
1042.23,37.397
1042.39,39.1583
1042.55,47.8007
1042.71,87.5313
1042.88,59.3103
1043.04,64.5122
1043.2,45.548
1043.36,98.5084
1043.53,64.9217
1043.69,67.5841
EndSpectrumFile,RAW DATA
SpectrumFile,DIFF DATA
Version,1.000000
Location,home
Customer,rudolf
SampleInfo,
GPSData,51.118519,-114.185438,1148.948730,193002,121211
SystemTime,2011,12,12,19,31,40,786
Pipe km,0.000000
Pre-Dilution Factor,1.000000
Freeform Info,
Concentration,0.097600
CalibrationName,paper-distance
Unique Calibration File ID,20111207-0014320750-TESTBOX2-7E963C-00018940
CalibrationWavelength,780.000000
CalibrationType,2,-0.131013,0.002732
CalibrationRSquared,0.999340
CalibrationConcentrations [ppm],3,0.000000,1.000000,10.000000
CalibrationCounts,3,0.000000,468.910000,3701.410000
CalibrationWarnLow,0.000000
CalibrationWarnHigh,10.000000
CalibrationErrorLow,0.000000
CalibrationErrorHigh,0.000000
Spectrometer Name,USB4000
Spectrometer Serial,USB4H02759
IntegrationTime [ms],50.000000
AveragedSpectra,50
BoxcarWidth,100
WavelengthRange [nm],346.775360,1043.690197
IntensityRange [counts],-13.078556,153.173917
WavelengthCount,3648
Wavelength [nm],Intensity [counts]
346.775,-0.135393
346.991,-0.135393
347.206,-0.135393
347.421,-4.88668
347.637,-6.15642
347.852,9.69486
348.067,14.7738
348.282,-5.95162
348.498,15.1834
348.713,7.72881
348.928,11.2923
349.143,21.9008
349.358,-3.69886
349.574,9.16238
349.789,16.0026
350.004,6.74578
350.219,6.86866
350.434,3.55095
350.649,10.6779
350.864,8.95759
351.079,15.552
351.295,2.56793
351.51,-5.54203
351.725,11.1284
351.94,3.59191
352.155,-4.10845
352.37,13.0535
352.585,8.87567
352.8,11.0056
353.015,9.94061
353.23,3.18232
353.445,22.0236
353.66,16.4941
353.875,7.89264
354.09,19.1974
354.305,-8.12247
354.52,19.1974
354.735,12.3982
354.949,2.64984
355.164,10.7188
355.379,20.3033
355.594,7.27825
355.809,11.0875
356.024,10.2273
356.239,0.0694034
356.453,6.04947
356.668,9.16238
356.883,3.79671
357.098,5.27124
357.313,33.8609
357.527,15.7978
357.742,12.1934
357.957,15.3473
358.172,4.61589
358.386,5.80372
358.601,19.5661
358.816,14.4461
359.03,15.1015
359.245,29.9697
359.46,19.4022
359.674,13.7908
359.889,6.09043
360.104,22.9247
360.318,13.627
360.533,2.40409
360.748,3.83767
360.962,12.6439
361.177,30.5432
361.391,21.2454
361.606,-2.51104
361.82,15.7159
362.035,8.79375
362.25,11.0875
362.464,14.4871
362.679,25.5461
362.893,7.64689
363.108,7.52401
363.322,19.1974
363.536,10.8008
363.751,0.806672
363.965,6.78674
364.18,3.55095
364.394,4.04246
364.609,25.0956
364.823,23.5801
365.037,-5.41915
365.252,6.95058
365.466,18.3373
365.68,24.3174
365.895,12.1524
366.109,12.8487
366.323,8.58895
366.538,8.26128
366.752,13.4222
366.966,8.46608
367.181,-8.57302
367.395,11.4971
367.609,12.562
367.823,0.192282
368.038,-1.65089
368.252,10.6469
368.466,10.7188
368.68,10.729
368.894,10.7622
369.109,10.8511
369.323,10.9603
369.537,10.9742
369.751,10.9707
369.965,11.0272
370.179,10.985
370.393,10.9308
370.607,10.9872
370.822,10.911
371.036,11.0005
371.25,11.0526
371.464,11.03
371.678,11.0528
371.892,11.0516
372.106,11.1435
372.32,11.1458
372.534,11.1612
372.748,11.1142
372.962,11.2128
373.176,11.3267
373.39,11.3738
373.604,11.33
373.818,11.3801
374.031,11.3569
374.245,11.3687
374.459,11.3446
374.673,11.3508
374.887,11.3614
375.101,11.3287
375.315,11.286
375.529,11.3485
375.742,11.3744
375.956,11.5331
376.17,11.4575
376.384,11.398
376.598,11.4689
376.811,11.4557
377.025,11.4145
377.239,11.46
377.453,11.4971
377.666,11.5246
377.88,11.5651
378.094,11.664
378.307,11.7265
378.521,11.7204
378.735,11.8052
378.948,11.8029
379.162,11.7583
379.376,11.7872
379.589,11.795
379.803,11.8288
380.016,11.9018
380.23,11.7571
380.444,11.7489
380.657,11.7192
380.871,11.6613
381.084,11.6833
381.298,11.6098
381.511,11.6452
381.725,11.7072
381.938,11.7742
382.152,11.8362
382.365,11.9101
382.579,11.862
382.792,11.8616
383.006,11.8855
383.219,11.9835
383.433,11.9725
383.646,12.0644
383.859,12.0701
384.073,12.0713
384.286,12.0467
384.5,12.1153
384.713,12.1341
384.926,12.1137
385.14,12.1673
385.353,12.3116
385.566,12.3754
385.779,12.55
385.993,12.5775
386.206,12.5594
386.419,12.5162
386.633,12.678
386.846,12.7568
387.059,12.8139
387.272,12.8465
387.485,12.8997
387.699,12.9698
387.912,13.0588
388.125,13.1475
388.338,13.2031
388.551,13.2377
388.764,13.4171
388.978,13.4228
389.191,13.4124
389.404,13.5385
389.617,13.6261
389.83,13.6697
390.043,13.675
390.256,13.738
390.469,13.8419
390.682,13.9153
390.895,13.9789
391.108,14.0372
391.321,14.091
391.534,14.0808
391.747,14.1992
391.96,14.189
392.173,14.2634
392.386,14.3422
392.599,14.5554
392.812,14.5757
393.025,14.5976
393.238,14.674
393.451,14.8207
393.663,14.9315
393.876,15.0021
394.089,15.2103
394.302,15.2549
394.515,15.3161
394.728,15.3301
394.941,15.4752
395.153,15.5539
395.366,15.559
395.579,15.6495
395.792,15.6759
396.004,15.8045
396.217,15.8919
396.43,15.9239
396.643,16.0222
396.855,16.1088
397.068,16.1848
397.281,16.3555
397.493,16.4446
397.706,16.5679
397.919,16.6292
398.131,16.6999
398.344,16.7788
398.557,16.8933
398.769,16.9249
398.982,16.9027
399.194,16.9805
399.407,17.0201
399.619,17.0667
399.832,17.2147
400.045,17.3159
400.257,17.3816
400.47,17.3993
400.682,17.4142
400.895,17.4969
401.107,17.4839
401.319,17.5381
401.532,17.7944
401.744,17.8963
401.957,17.931
402.169,18.0402
402.382,18.2592
402.594,18.5125
402.806,18.6641
403.019,18.8583
403.231,18.9187
403.444,19.0446
403.656,19.1059
403.868,19.172
404.081,19.355
404.293,19.4933
404.505,19.5646
404.717,19.6419
404.93,19.77
405.142,19.8507
405.354,20.0879
405.566,20.1185
405.779,20.1403
405.991,20.318
406.203,20.4592
406.415,20.6663
406.627,20.7003
406.84,20.7881
407.052,20.9261
407.264,21.0143
407.476,21.1384
407.688,21.2898
407.9,21.3648
408.112,21.5274
408.324,21.6666
408.537,21.7481
408.749,21.9221
408.961,22.0334
409.173,22.0823
409.385,22.2215
409.597,22.3684
409.809,22.5025
410.021,22.6435
410.233,22.765
410.445,22.9027
410.657,23.066
410.869,23.2167
411.081,23.3904
411.292,23.5379
411.504,23.8138
411.716,23.9944
411.928,24.1162
412.14,24.2564
412.352,24.4148
412.564,24.5193
412.776,24.6921
412.988,24.8851
413.199,25.087
413.411,25.1979
413.623,25.4398
413.835,25.5541
414.047,25.6711
414.258,25.8655
414.47,26.0063
414.682,26.1617
414.894,26.3034
415.105,26.4713
415.317,26.6296
415.529,26.8754
415.74,27.0188
415.952,27.1633
416.164,27.2921
416.375,27.4818
416.587,27.6632
416.799,27.8543
417.01,28.0294
417.222,28.1963
417.433,28.3456
417.645,28.6171
417.857,28.787
418.068,29.0611
418.28,29.1302
418.491,29.2158
418.703,29.3625
418.914,29.5296
419.126,29.756
419.337,29.9237
419.549,30.1352
419.76,30.3384
419.972,30.4977
420.183,30.6709
420.394,30.8766
420.606,31.1156
420.817,31.2556
421.029,31.4158
421.24,31.6495
421.451,31.849
421.663,31.9552
421.874,32.257
422.085,32.3513
422.297,32.4997
422.508,32.6955
422.719,32.8336
422.931,33.1012
423.142,33.3229
423.353,33.5988
423.565,33.7549
423.776,33.9208
423.987,34.2909
424.198,34.5234
424.409,34.6589
424.621,34.7642
424.832,34.9876
425.043,35.1981
425.254,35.4432
425.465,35.5694
425.676,35.7607
425.888,35.9284
426.099,36.1964
426.31,36.3492
426.521,36.5422
426.732,36.7207
426.943,36.9858
427.154,37.2
427.365,37.4372
427.576,37.6652
427.787,37.847
427.998,37.9678
428.209,38.1637
428.42,38.3401
428.631,38.5887
428.842,38.7911
429.053,39.0464
429.264,39.2714
429.475,39.5273
429.686,39.6981
429.897,39.8587
430.108,40.1128
430.319,40.3166
430.529,40.438
430.74,40.6681
430.951,40.7881
431.162,40.9835
431.373,41.1407
431.584,41.4673
431.794,41.6937
432.005,41.806
432.216,42.0998
432.427,42.3489
432.637,42.5681
432.848,42.8104
433.059,42.926
433.27,43.1536
433.48,43.381
433.691,43.5432
433.902,43.7745
434.112,43.9952
434.323,44.2002
434.534,44.4639
434.744,44.7068
434.955,44.8525
435.166,45.0359
435.376,45.3631
435.587,45.5388
435.797,45.7285
436.008,45.9828
436.218,46.2583
436.429,46.4468
436.64,46.5491
436.85,46.8318
437.061,47.0476
437.271,47.3178
437.482,47.4947
437.692,47.7084
437.902,47.8875
438.113,48.1119
438.323,48.3334
438.534,48.5635
438.744,48.7868
438.955,49.0167
439.165,49.2738
439.375,49.4992
439.586,49.6847
439.796,49.8954
440.006,50.0873
440.217,50.2477
440.427,50.5142
440.637,50.7547
440.848,50.9988
441.058,51.2032
441.268,51.4141
441.479,51.6705
441.689,51.8622
441.899,52.1031
442.109,52.3568
442.319,52.5573
442.53,52.7633
442.74,52.9869
442.95,53.3076
443.16,53.5458
443.37,53.8501
443.58,54.1026
443.791,54.3656
444.001,54.5574
444.211,54.7284
444.421,54.9802
444.631,55.1685
444.841,55.4697
445.051,55.6003
445.261,55.8224
445.471,55.9313
445.681,56.135
445.891,56.3127
446.101,56.5919
446.311,56.9277
446.521,57.1768
446.731,57.3712
446.941,57.5776
447.151,57.7714
447.361,58.031
447.571,58.3627
447.781,58.5366
447.991,58.8854
448.201,59.1848
448.41,59.444
448.62,59.6971
448.83,59.9131
449.04,60.2444
449.25,60.5833
449.46,60.86
449.669,61.1512
449.879,61.3707
450.089,61.6191
450.299,61.9427
450.508,62.2213
450.718,62.5131
450.928,62.9117
451.138,63.1727
451.347,63.4808
451.557,63.7494
451.767,63.9948
451.976,64.2534
452.186,64.4127
452.396,64.6672
452.605,64.8353
452.815,65.0658
453.025,65.3965
453.234,65.6115
453.444,65.8879
453.653,66.1776
453.863,66.4187
454.072,66.6211
454.282,66.9208
454.491,67.1266
454.701,67.3384
454.911,67.6583
455.12,68.0891
455.329,68.3149
455.539,68.582
455.748,68.8651
455.958,69.0478
456.167,69.3562
456.377,69.6064
456.586,69.8793
456.795,70.1464
457.005,70.4132
457.214,70.6797
457.424,70.8735
457.633,71.2059
457.842,71.4693
458.052,71.6721
458.261,71.9488
458.47,72.238
458.679,72.571
458.889,72.8611
459.098,73.2279
459.307,73.5018
459.517,73.7459
459.726,74.0451
459.935,74.2788
460.144,74.5935
460.353,74.7822
460.563,75.1708
460.772,75.4919
460.981,75.7774
461.19,76.0749
461.399,76.3072
461.608,76.6043
461.817,76.9516
462.026,77.2151
462.236,77.5315
462.445,77.8824
462.654,78.1425
462.863,78.4335
463.072,78.6973
463.281,78.9718
463.49,79.3511
463.699,79.6262
463.908,79.9253
464.117,80.1107
464.326,80.4924
464.535,80.8289
464.744,81.0887
464.952,81.3974
465.161,81.7534
465.37,82.0495
465.579,82.2897
465.788,82.6771
465.997,82.9761
466.206,83.2846
466.415,83.5854
466.623,83.8511
466.832,84.212
467.041,84.4797
467.25,84.7903
467.459,85.1392
467.667,85.4801
467.876,85.7281
468.085,86.0421
468.294,86.3598
468.502,86.7215
468.711,87.1195
468.92,87.4783
469.128,87.7331
469.337,88.0098
469.546,88.3733
469.754,88.6727
469.963,88.9751
470.172,89.3633
470.38,89.6961
470.589,89.9881
470.798,90.2907
471.006,90.6579
471.215,91.0192
471.423,91.3515
471.632,91.6425
471.84,92.057
472.049,92.4811
472.257,92.8797
472.466,93.1811
472.674,93.6084
472.883,94.0074
473.091,94.5537
473.3,95.0251
473.508,95.3859
473.716,95.6975
473.925,96.1599
474.133,96.6924
474.342,97.0355
474.55,97.4311
474.758,97.8612
474.967,98.2056
475.175,98.6352
475.383,99.0246
475.592,99.4682
475.8,99.95
476.008,100.338
476.217,100.65
476.425,101.066
476.633,101.347
476.841,101.818
477.05,102.276
477.258,102.682
477.466,103.024
477.674,103.453
477.882,103.812
478.091,104.179
478.299,104.444
478.507,104.927
478.715,105.317
478.923,105.687
479.131,106.039
479.339,106.432
479.547,106.806
479.755,107.209
479.963,107.751
480.171,108.205
480.38,108.693
480.588,109.035
480.796,109.364
481.004,109.906
481.212,110.278
481.42,110.731
481.627,111.172
481.835,111.579
482.043,111.958
482.251,112.388
482.459,112.799
482.667,113.185
482.875,113.6
483.083,114.088
483.291,114.542
483.499,114.908
483.706,115.291
483.914,115.734
484.122,116.192
484.33,116.617
484.538,117.128
484.745,117.604
484.953,117.957
485.161,118.525
485.369,118.823
485.576,119.214
485.784,119.617
485.992,119.964
486.199,120.34
486.407,120.693
486.615,121.095
486.822,121.517
487.03,122.003
487.238,122.508
487.445,123.005
487.653,123.54
487.861,124.002
488.068,124.376
488.276,124.769
488.483,125.105
488.691,125.532
488.898,126.063
489.106,126.464
489.313,126.745
489.521,127.076
489.728,127.47
489.936,127.798
490.143,128.159
490.351,128.585
490.558,128.969
490.766,129.317
490.973,129.69
491.18,130.014
491.388,130.377
491.595,130.72
491.802,131.109
492.01,131.491
492.217,131.806
492.424,132.122
492.632,132.442
492.839,132.68
493.046,133.042
493.254,133.308
493.461,133.697
493.668,133.998
493.875,134.36
494.083,134.755
494.29,135.081
494.497,135.468
494.704,135.827
494.911,136.072
495.119,136.483
495.326,136.742
495.533,136.969
495.74,137.239
495.947,137.611
496.154,137.899
496.361,138.269
496.568,138.622
496.775,138.85
496.982,138.964
497.19,139.228
497.397,139.523
497.604,139.792
497.811,140.085
498.018,140.354
498.225,140.609
498.432,140.813
498.638,141.14
498.845,141.467
499.052,141.703
499.259,142.113
499.466,142.264
499.673,142.411
499.88,142.663
500.087,142.891
500.294,143.086
500.501,143.327
500.707,143.572
500.914,143.747
501.121,144.005
501.328,144.322
501.535,144.57
501.741,144.843
501.948,145.075
502.155,145.368
502.362,145.58
502.568,145.768
502.775,145.944
502.982,146.184
503.188,146.463
503.395,146.71
503.602,146.861
503.808,147.03
504.015,147.206
504.222,147.343
504.428,147.496
504.635,147.663
504.841,147.916
505.048,148.12
505.254,148.3
505.461,148.417
505.668,148.584
505.874,148.843
506.081,148.967
506.287,149.126
506.494,149.324
506.7,149.497
506.907,149.647
507.113,149.83
507.319,149.97
507.526,150.05
507.732,150.267
507.939,150.356
508.145,150.475
508.351,150.647
508.558,150.686
508.764,150.872
508.97,151.022
509.177,151.174
509.383,151.267
509.589,151.47
509.796,151.615
510.002,151.716
510.208,151.782
510.414,151.852
510.621,152.023
510.827,152.212
511.033,152.329
511.239,152.395
511.445,152.507
511.652,152.671
511.858,152.659
512.064,152.752
512.27,152.823
512.476,152.989
512.682,153.051
512.888,152.992
513.095,153.031
513.301,153.174
513.507,153.128
513.713,153.052
513.919,152.897
514.125,152.998
514.331,152.957
514.537,152.889
514.743,152.754
514.949,152.733
515.155,152.75
515.361,152.83
515.567,152.764
515.773,152.688
515.978,152.637
516.184,152.608
516.39,152.487
516.596,152.437
516.802,152.406
517.008,152.349
517.214,152.16
517.419,152.063
517.625,152.054
517.831,152.098
518.037,152
518.243,152.001
518.448,151.897
518.654,151.859
518.86,151.772
519.066,151.702
519.271,151.742
519.477,151.718
519.683,151.653
519.888,151.633
520.094,151.551
520.3,151.486
520.505,151.431
520.711,151.49
520.917,151.344
521.122,151.307
521.328,151.229
521.533,151.144
521.739,151.04
521.944,150.878
522.15,150.877
522.356,150.761
522.561,150.545
522.767,150.513
522.972,150.404
523.177,150.308
523.383,150.08
523.588,150.016
523.794,149.847
523.999,149.806
524.205,149.705
524.41,149.598
524.615,149.407
524.821,149.217
525.026,149.183
525.232,149.109
525.437,148.986
525.642,148.802
525.847,148.572
526.053,148.333
526.258,148.085
526.463,147.981
526.669,147.776
526.874,147.698
527.079,147.605
527.284,147.453
527.49,147.345
527.695,147.251
527.9,147.152
528.105,147.058
528.31,146.835
528.515,146.599
528.721,146.365
528.926,146.169
529.131,145.89
529.336,145.585
529.541,145.419
529.746,145.221
529.951,145.14
530.156,144.873
530.361,144.57
530.566,144.395
530.771,144.235
530.976,143.993
531.181,143.813
531.386,143.585
531.591,143.35
531.796,143.092
532.001,142.866
532.206,142.648
532.411,142.388
532.616,142.168
532.821,141.925
533.025,141.737
533.23,141.456
533.435,141.217
533.64,140.969
533.845,140.82
534.05,140.599
534.254,140.339
534.459,140.063
534.664,139.898
534.869,139.606
535.073,139.406
535.278,139.189
535.483,138.987
535.688,138.708
535.892,138.449
536.097,138.155
536.302,137.992
536.506,137.684
536.711,137.427
536.916,137.21
537.12,136.917
537.325,136.629
537.529,136.454
537.734,136.146
537.938,135.837
538.143,135.531
538.348,135.313
538.552,135.149
538.757,134.837
538.961,134.545
539.166,134.334
539.37,134.032
539.575,133.775
539.779,133.472
539.983,133.151
540.188,132.855
540.392,132.583
540.597,132.204
540.801,131.978
541.005,131.804
541.21,131.561
541.414,131.301
541.618,131.043
541.823,130.741
542.027,130.529
542.231,130.249
542.436,129.898
542.64,129.565
542.844,129.279
543.048,128.922
543.253,128.591
543.457,128.246
543.661,127.901
543.865,127.595
544.069,127.348
544.274,127.057
544.478,126.718
544.682,126.321
544.886,126.096
545.09,125.9
545.294,125.679
545.498,125.368
545.702,125.092
545.907,124.796
546.111,124.461
546.315,124.146
546.519,123.78
546.723,123.477
546.927,123.221
547.131,122.824
547.335,122.649
547.539,122.311
547.743,122.039
547.947,121.73
548.15,121.477
548.354,121.092
548.558,120.832
548.762,120.63
548.966,120.272
549.17,119.94
549.374,119.705
549.578,119.31
549.781,119.093
549.985,118.72
550.189,118.423
550.393,118.077
550.597,117.838
550.8,117.464
551.004,117.128
551.208,116.757
551.412,116.508
551.615,116.144
551.819,115.798
552.023,115.38
552.226,115.144
552.43,114.826
552.634,114.504
552.837,114.198
553.041,113.997
553.244,113.719
553.448,113.354
553.652,112.974
553.855,112.634
554.059,112.375
554.262,112.03
554.466,111.565
554.669,111.361
554.873,111.103
555.076,110.933
555.28,110.575
555.483,110.295
555.687,110.064
555.89,109.761
556.094,109.44
556.297,109.221
556.5,108.841
556.704,108.616
556.907,108.312
557.111,107.96
557.314,107.731
557.517,107.48
557.721,107.28
557.924,106.957
558.127,106.709
558.33,106.539
558.534,106.246
558.737,105.954
558.94,105.711
559.144,105.425
559.347,105.226
559.55,104.991
559.753,104.781
559.956,104.508
560.159,104.248
560.363,103.904
560.566,103.697
560.769,103.415
560.972,103.221
561.175,102.927
561.378,102.725
561.581,102.514
561.784,102.214
561.987,101.995
562.19,101.763
562.394,101.572
562.597,101.194
562.8,100.955
563.003,100.652
563.205,100.406
563.408,100.193
563.611,100.034
563.814,99.7617
564.017,99.5878
564.22,99.3971
564.423,99.3048
564.626,99.0823
564.829,98.8905
565.032,98.6166
565.235,98.4542
565.437,98.2085
565.64,98.0834
565.843,97.9529
566.046,97.7915
566.249,97.6049
566.451,97.4084
566.654,97.2752
566.857,97.1865
567.06,97.0779
567.262,96.9785
567.465,96.792
567.668,96.4996
567.87,96.3673
568.073,96.1933
568.276,96.0617
568.478,95.9926
568.681,95.8917
568.884,95.7538
569.086,95.5557
569.289,95.4801
569.491,95.3472
569.694,95.2404
569.896,95.066
570.099,94.9711
570.301,94.978
570.504,94.8838
570.706,94.6811
570.909,94.4971
571.111,94.3972
571.314,94.3528
571.516,94.2878
571.719,94.2892
571.921,94.2519
572.124,94.1311
572.326,94.0779
572.528,94.0302
572.731,93.998
572.933,93.9917
573.135,93.9668
573.338,94.0196
573.54,93.9923
573.742,93.9711
573.945,93.8876
574.147,93.9526
574.349,93.912
574.551,93.9768
574.754,93.8884
574.956,93.8729
575.158,93.9126
575.36,93.9837
575.562,93.9644
575.765,94.0296
575.967,94.0838
576.169,94.1127
576.371,94.1099
576.573,94.1272
576.775,94.2281
576.977,94.2809
577.179,94.2586
577.382,94.32
577.584,94.4394
577.786,94.4995
577.988,94.5733
578.19,94.6593
578.392,94.6434
578.594,94.7125
578.796,94.8333
578.998,94.9935
579.2,95.0053
579.401,95.0497
579.603,95.1769
579.805,95.261
580.007,95.3038
580.209,95.4736
580.411,95.6068
580.613,95.778
580.815,95.8365
581.016,95.9445
581.218,96.0427
581.42,96.1878
581.622,96.208
581.824,96.2693
582.025,96.3651
582.227,96.4228
582.429,96.4762
582.631,96.5465
582.832,96.5342
583.034,96.5778
583.236,96.8338
583.437,97.0319
583.639,97.0469
583.841,97.2208
584.042,97.2257
584.244,97.3642
584.446,97.5431
584.647,97.6911
584.849,97.7514
585.05,97.8706
585.252,98.0353
585.453,98.2181
585.655,98.2423
585.856,98.2912
586.058,98.2725
586.259,98.3523
586.461,98.4422
586.662,98.5747
586.864,98.7118
587.065,98.8648
587.267,99.0356
587.468,99.163
587.67,99.2041
587.871,99.3639
588.072,99.4242
588.274,99.6473
588.475,99.7922
588.676,99.8935
588.878,100.007
589.079,100.231
589.28,100.447
589.481,100.514
589.683,100.613
589.884,100.725
590.085,100.822
590.286,101.008
590.488,101.153
590.689,101.333
590.89,101.4
591.091,101.534
591.292,101.557
591.494,101.735
591.695,101.958
591.896,102.145
592.097,102.234
592.298,102.415
592.499,102.468
592.7,102.642
592.901,102.745
593.102,102.85
593.303,103.006
593.504,103.092
593.705,103.156
593.906,103.282
594.107,103.479
594.308,103.758
594.509,103.952
594.71,104.169
594.911,104.369
595.112,104.644
595.313,104.684
595.514,104.868
595.715,104.982
595.915,105.127
596.116,105.286
596.317,105.3
596.518,105.475
596.719,105.598
596.92,105.653
597.12,105.76
597.321,105.916
597.522,106.026
597.723,106.283
597.923,106.293
598.124,106.47
598.325,106.588
598.525,106.74
598.726,106.875
598.927,107.013
599.127,107.197
599.328,107.376
599.529,107.43
599.729,107.543
599.93,107.69
600.13,107.829
600.331,107.904
600.531,108.038
600.732,108.194
600.933,108.342
601.133,108.433
601.334,108.627
601.534,108.657
601.734,108.799
601.935,108.897
602.135,108.958
602.336,108.997
602.536,109.123
602.737,109.223
602.937,109.328
603.137,109.485
603.338,109.515
603.538,109.596
603.738,109.673
603.939,109.754
604.139,109.775
604.339,109.817
604.54,109.822
604.74,109.866
604.94,109.939
605.14,110.028
605.341,110.169
605.541,110.173
605.741,110.218
605.941,110.242
606.141,110.29
606.342,110.316
606.542,110.281
606.742,110.3
606.942,110.308
607.142,110.235
607.342,110.13
607.542,110.078
607.742,110.026
607.942,110.03
608.142,110.067
608.343,110.028
608.543,110.069
608.743,110.131
608.943,110.09
609.143,110.049
609.342,110.052
609.542,110.025
609.742,109.952
609.942,110.046
610.142,109.998
610.342,110.074
610.542,110.097
610.742,110.1
610.942,110.079
611.142,110.19
611.341,110.126
611.541,110.167
611.741,110.123
611.941,110.078
612.141,110.016
612.34,110.076
612.54,110.087
612.74,110.056
612.94,110.032
613.139,109.954
613.339,109.95
613.539,109.86
613.738,109.728
613.938,109.589
614.138,109.521
614.337,109.511
614.537,109.409
614.736,109.403
614.936,109.381
615.136,109.33
615.335,109.348
615.535,109.325
615.734,109.202
615.934,109.034
616.133,108.963
616.333,108.813
616.532,108.675
616.732,108.623
616.931,108.661
617.131,108.537
617.33,108.504
617.529,108.445
617.729,108.428
617.928,108.269
618.128,108.196
618.327,108.103
618.526,108.042
618.726,108
618.925,107.889
619.124,107.839
619.324,107.786
619.523,107.836
619.722,107.707
619.921,107.587
620.121,107.524
620.32,107.418
620.519,107.255
620.718,107.174
620.917,107.11
621.117,107.182
621.316,107.083
621.515,106.99
621.714,106.955
621.913,106.943
622.112,106.905
622.311,106.774
622.51,106.678
622.709,106.693
622.909,106.64
623.108,106.685
623.307,106.719
623.506,106.523
623.705,106.411
623.904,106.456
624.103,106.282
624.301,106.306
624.5,106.222
624.699,106.057
624.898,105.936
625.097,105.924
625.296,105.906
625.495,105.863
625.694,105.79
625.893,105.764
626.091,105.747
626.29,105.708
626.489,105.687
626.688,105.738
626.887,105.68
627.085,105.558
627.284,105.52
627.483,105.459
627.682,105.438
627.88,105.48
628.079,105.433
628.278,105.349
628.476,105.188
628.675,105.163
628.874,105.19
629.072,105.15
629.271,105.056
629.47,104.904
629.668,104.787
629.867,104.751
630.065,104.677
630.264,104.598
630.462,104.574
630.661,104.524
630.859,104.451
631.058,104.392
631.256,104.304
631.455,104.309
631.653,104.236
631.852,104.116
632.05,104.011
632.249,103.931
632.447,103.855
632.645,103.905
632.844,103.786
633.042,103.684
633.24,103.629
633.439,103.619
633.637,103.6
633.835,103.615
634.034,103.549
634.232,103.47
634.43,103.319
634.628,103.219
634.827,103.176
635.025,103.174
635.223,103.013
635.421,103.013
635.62,102.945
635.818,102.934
636.016,102.926
636.214,102.863
636.412,102.894
636.61,102.899
636.808,102.936
637.006,102.984
637.205,102.916
637.403,102.82
637.601,102.817
637.799,102.734
637.997,102.83
638.195,102.718
638.393,102.645
638.591,102.648
638.789,102.58
638.987,102.468
639.184,102.364
639.382,102.29
639.58,102.255
639.778,102.222
639.976,102.156
640.174,102.064
640.372,101.996
640.57,102.01
640.767,102.057
640.965,101.945
641.163,101.886
641.361,101.774
641.559,101.753
641.756,101.712
641.954,101.634
642.152,101.572
642.35,101.594
642.547,101.6
642.745,101.661
642.943,101.649
643.14,101.599
643.338,101.628
643.536,101.587
643.733,101.508
643.931,101.534
644.128,101.57
644.326,101.579
644.524,101.563
644.721,101.604
644.919,101.579
645.116,101.565
645.314,101.567
645.511,101.558
645.709,101.485
645.906,101.435
646.104,101.369
646.301,101.327
646.498,101.397
646.696,101.397
646.893,101.424
647.091,101.478
647.288,101.614
647.485,101.62
647.683,101.706
647.88,101.718
648.077,101.802
648.275,101.83
648.472,101.859
648.669,101.808
648.867,101.807
649.064,101.798
649.261,101.847
649.458,101.927
649.655,101.95
649.853,101.847
650.05,101.882
650.247,101.859
650.444,101.899
650.641,101.827
650.838,101.761
651.036,101.649
651.233,101.689
651.43,101.692
651.627,101.731
651.824,101.744
652.021,101.719
652.218,101.691
652.415,101.709
652.612,101.755
652.809,101.764
653.006,101.742
653.203,101.67
653.4,101.729
653.597,101.737
653.794,101.827
653.991,101.841
654.187,101.805
654.384,101.835
654.581,101.785
654.778,101.736
654.975,101.676
655.172,101.663
655.369,101.716
655.565,101.743
655.762,101.817
655.959,101.772
656.156,101.714
656.352,101.703
656.549,101.73
656.746,101.627
656.943,101.648
657.139,101.582
657.336,101.489
657.533,101.483
657.729,101.454
657.926,101.51
658.122,101.462
658.319,101.301
658.516,101.198
658.712,101.268
658.909,101.142
659.105,101.13
659.302,101.016
659.498,100.985
659.695,101.041
659.891,101.035
660.088,101.017
660.284,100.928
660.481,100.881
660.677,100.76
660.874,100.571
661.07,100.523
661.266,100.48
661.463,100.363
661.659,100.287
661.856,100.222
662.052,100.228
662.248,100.235
662.444,100.131
662.641,100.096
662.837,99.9245
663.033,99.824
663.23,99.8558
663.426,99.7443
663.622,99.693
663.818,99.7203
664.014,99.6828
664.211,99.6021
664.407,99.5404
664.603,99.5546
664.799,99.4077
664.995,99.3003
665.191,99.1758
665.387,99.0297
665.584,98.9653
665.78,98.9496
665.976,98.874
666.172,98.6967
666.368,98.4966
666.564,98.389
666.76,98.3607
666.956,98.1936
667.152,97.9158
667.348,97.8021
667.544,97.602
667.74,97.5058
667.936,97.3416
668.131,97.2689
668.327,97.081
668.523,96.9033
668.719,96.7553
668.915,96.6027
669.111,96.4527
669.307,96.3584
669.502,96.1907
669.698,96.135
669.894,96.0067
670.09,95.877
670.285,95.7336
670.481,95.6492
670.677,95.5494
670.873,95.466
671.068,95.2645
671.264,95.1239
671.46,94.9014
671.655,94.7608
671.851,94.7245
672.047,94.5882
672.242,94.4196
672.438,94.3271
672.633,94.1771
672.829,94.1297
673.025,93.8762
673.22,93.6958
673.416,93.5073
673.611,93.2703
673.807,93.1189
674.002,92.9551
674.198,92.8192
674.393,92.628
674.589,92.4169
674.784,92.3067
674.979,92.1777
675.175,92.0597
675.37,91.842
675.566,91.7116
675.761,91.6438
675.956,91.5527
676.152,91.3326
676.347,91.1722
676.542,91.0102
676.738,90.8949
676.933,90.727
677.128,90.641
677.323,90.4853
677.519,90.3025
677.714,90.1254
677.909,90.0423
678.104,89.8234
678.299,89.6533
678.494,89.5618
678.69,89.4735
678.885,89.2624
679.08,89.1923
679.275,89.0806
679.47,88.9038
679.665,88.7774
679.86,88.5734
680.055,88.3409
680.25,88.0825
680.445,87.9165
680.64,87.7433
680.835,87.6365
681.03,87.4712
681.225,87.3025
681.42,87.091
681.615,86.9722
681.81,86.8128
682.005,86.6225
682.2,86.2985
682.395,86.0411
682.59,85.8334
682.785,85.7004
682.979,85.5728
683.174,85.3686
683.369,85.1049
683.564,84.8066
683.759,84.599
683.953,84.4547
684.148,84.2106
684.343,84.0606
684.538,83.8544
684.732,83.5905
684.927,83.3985
685.122,83.1957
685.316,83.0778
685.511,82.9005
685.706,82.7456
685.9,82.5068
686.095,82.2724
686.29,82.0713
686.484,81.8995
686.679,81.6368
686.873,81.4646
687.068,81.1282
687.262,80.9554
687.457,80.73
687.651,80.5018
687.846,80.2585
688.04,80.0889
688.235,79.8693
688.429,79.7448
688.624,79.5237
688.818,79.3079
689.013,79.1495
689.207,78.9818
689.401,78.7556
689.596,78.4789
689.79,78.2071
689.984,77.9868
690.179,77.8733
690.373,77.7339
690.567,77.6063
690.762,77.3634
690.956,77.2081
691.15,76.921
691.344,76.6622
691.538,76.3523
691.733,76.1106
691.927,75.9213
692.121,75.7458
692.315,75.5857
692.509,75.432
692.703,75.2943
692.898,75.0844
693.092,74.8027
693.286,74.5961
693.48,74.4141
693.674,74.1466
693.868,73.9149
694.062,73.6924
694.256,73.4655
694.45,73.3025
694.644,72.949
694.838,72.7287
695.032,72.5416
695.226,72.3794
695.42,72.2612
695.614,72.0695
695.808,71.7563
696.002,71.6038
696.195,71.3483
696.389,71.1889
696.583,71.1058
696.777,70.9047
696.971,70.7632
697.165,70.5242
697.358,70.3223
697.552,70.2426
697.746,70.1356
697.94,69.8412
698.133,69.6594
698.327,69.4283
698.521,69.2588
698.715,69.1029
698.908,68.8394
699.102,68.6236
699.296,68.378
699.489,68.2321
699.683,68.0318
699.876,67.8588
700.07,67.698
700.264,67.5165
700.457,67.2901
700.651,67.0995
700.844,66.9029
701.038,66.659
701.231,66.4986
701.425,66.3072
701.618,66.1069
701.812,65.8946
702.005,65.876
702.199,65.6507
702.392,65.4398
702.586,65.2949
702.779,65.0905
702.972,64.9256
703.166,64.7339
703.359,64.566
703.552,64.4848
703.746,64.3078
703.939,64.1926
704.132,64.0068
704.326,63.8725
704.519,63.8218
704.712,63.619
704.905,63.3243
705.099,63.1212
705.292,63.0808
705.485,62.9651
705.678,62.8571
705.871,62.7401
706.064,62.5848
706.258,62.488
706.451,62.3762
706.644,62.2891
706.837,62.1689
707.03,62.077
707.223,61.9319
707.416,61.7909
707.609,61.666
707.802,61.5093
707.995,61.4638
708.188,61.3094
708.381,61.2103
708.574,61.1307
708.767,60.9803
708.96,60.8448
709.153,60.7076
709.346,60.6581
709.539,60.501
709.732,60.3763
709.924,60.2695
710.117,60.2471
710.31,60.1004
710.503,60.1146
710.696,60.0981
710.889,59.8829
711.081,59.8026
711.274,59.6828
711.467,59.5632
711.66,59.4803
711.852,59.3344
712.045,59.3315
712.238,59.2492
712.43,59.2015
712.623,59.2131
712.816,59.1182
713.008,58.9798
713.201,58.9174
713.394,58.8357
713.586,58.7414
713.779,58.6831
713.971,58.5875
714.164,58.4491
714.356,58.3589
714.549,58.1848
714.741,58.0202
714.934,57.945
715.126,57.8588
715.319,57.7559
715.511,57.7023
715.704,57.7054
715.896,57.6666
716.088,57.5417
716.281,57.522
716.473,57.372
716.666,57.3243
716.858,57.0879
717.05,57.0182
717.243,56.9497
717.435,56.8165
717.627,56.7244
717.819,56.6822
718.012,56.523
718.204,56.4154
718.396,56.3879
718.588,56.2901
718.781,56.2759
718.973,56.2679
719.165,56.152
719.357,56.1035
719.549,55.9771
719.741,55.8475
719.934,55.7377
720.126,55.6431
720.318,55.6503
720.51,55.5306
720.702,55.4082
720.894,55.3434
721.086,55.3167
721.278,55.2824
721.47,55.2938
721.662,55.0992
721.854,55.0683
722.046,55.041
722.238,55.0575
722.43,55.1102
722.622,55.1396
722.814,55.0267
723.005,55.0338
723.197,54.9894
723.389,54.9279
723.581,54.8887
723.773,54.9132
723.965,54.904
724.156,54.8816
724.348,54.8272
724.54,54.7934
724.732,54.8443
724.923,54.9006
725.115,54.8441
725.307,54.8751
725.499,54.8649
725.69,54.8557
725.882,54.8215
726.074,54.7976
726.265,54.7915
726.457,54.7864
726.648,54.7705
726.84,54.7324
727.032,54.7697
727.223,54.71
727.415,54.7161
727.606,54.721
727.798,54.7306
727.989,54.7549
728.181,54.7636
728.372,54.8488
728.564,54.9112
728.755,54.9197
728.947,54.8596
729.138,54.8411
729.329,54.8439
729.521,54.9091
729.712,54.8716
729.904,54.9698
730.095,55.0461
730.286,55.0954
730.478,55.1636
730.669,55.1824
730.86,55.2093
731.051,55.2158
731.243,55.2079
731.434,55.1918
731.625,55.2374
731.816,55.2307
732.008,55.2364
732.199,55.2608
732.39,55.3132
732.581,55.4086
732.772,55.4212
732.963,55.5637
733.154,55.5486
733.346,55.6782
733.537,55.8121
733.728,55.9415
733.919,56.0348
734.11,56.1322
734.301,56.2194
734.492,56.2885
734.683,56.4071
734.874,56.5126
735.065,56.5285
735.256,56.5901
735.447,56.5921
735.638,56.6671
735.829,56.7427
736.019,56.9239
736.21,57.0276
736.401,57.0423
736.592,57.1647
736.783,57.3306
736.974,57.3795
737.164,57.5006
737.355,57.5874
737.546,57.6499
737.737,57.6652
737.928,57.7779
738.118,57.9554
738.309,57.9966
738.5,58.0112
738.69,58.0455
738.881,58.128
739.072,58.2494
739.262,58.3312
739.453,58.4196
739.644,58.5272
739.834,58.5969
740.025,58.6452
740.215,58.7216
740.406,58.7746
740.596,58.6433
740.787,58.658
740.978,58.6348
741.168,58.688
741.358,58.7012
741.549,58.7061
741.739,58.7161
741.93,58.735
742.12,58.7065
742.311,58.6921
742.501,58.6419
742.691,58.6959
742.882,58.6668
743.072,58.6709
743.263,58.6544
743.453,58.6837
743.643,58.752
743.833,58.7638
744.024,58.7948
744.214,58.7143
744.404,58.6986
744.594,58.6839
744.785,58.7424
744.975,58.7442
745.165,58.7189
745.355,58.698
745.545,58.741
745.736,58.8594
745.926,58.8875
746.116,58.9694
746.306,59.0244
746.496,59.0878
746.686,59.1813
746.876,59.1764
747.066,59.2388
747.256,59.3315
747.446,59.4827
747.636,59.5693
747.826,59.6105
748.016,59.7531
748.206,59.8501
748.396,59.9697
748.586,60.0519
748.776,60.213
748.966,60.3993
749.156,60.4953
749.346,60.6067
749.535,60.7472
749.725,60.9666
749.915,61.1832
750.105,61.408
750.295,61.6044
750.484,61.7866
750.674,61.86
750.864,62.1153
751.054,62.3327
751.243,62.5439
751.433,62.8402
751.623,63.0219
751.812,63.2769
752.002,63.415
752.192,63.5854
752.381,63.8527
752.571,64.06
752.761,64.2902
752.95,64.6354
753.14,64.967
753.329,65.1913
753.519,65.4334
753.708,65.581
753.898,65.6631
754.087,65.8267
754.277,65.9364
754.466,66.1077
754.656,66.2879
754.845,66.5776
755.035,66.8717
755.224,67.1851
755.413,67.3769
755.603,67.5658
755.792,67.818
755.982,68.0069
756.171,68.2179
756.36,68.4125
756.549,68.6676
756.739,68.8883
756.928,69.087
757.117,69.2979
757.307,69.5341
757.496,69.7735
757.685,69.9657
757.874,70.2567
758.063,70.501
758.253,70.7734
758.442,71.0428
758.631,71.2026
758.82,71.4602
759.009,71.7467
759.198,71.9496
759.387,72.1746
759.576,72.2906
759.765,72.5049
759.954,72.7535
760.143,72.9365
760.332,73.1079
760.521,73.2636
760.71,73.4513
760.899,73.5738
761.088,73.8527
761.277,74.0394
761.466,74.1339
761.655,74.492
761.844,74.6813
762.033,74.8482
762.222,75.0369
762.411,75.2612
762.599,75.4579
762.788,75.6631
762.977,75.724
763.166,75.8687
763.355,76.0352
763.543,76.1711
763.732,76.2608
763.921,76.4105
764.109,76.6304
764.298,76.802
764.487,76.965
764.675,77.135
764.864,77.2108
765.053,77.376
765.241,77.4967
765.43,77.6897
765.619,77.8215
765.807,77.9462
765.996,78.0556
766.184,78.1639
766.373,78.3389
766.561,78.4893
766.75,78.5885
766.938,78.797
767.127,78.9892
767.315,79.1544
767.504,79.2072
767.692,79.2361
767.881,79.2724
768.069,79.296
768.257,79.4364
768.446,79.626
768.634,79.6577
768.822,79.726
769.011,79.8483
769.199,79.9516
769.387,80.0186
769.576,80.0215
769.764,80.1083
769.952,80.2622
770.14,80.3936
770.328,80.4761
770.517,80.6163
770.705,80.7039
770.893,80.8562
771.081,80.9263
771.269,81.0516
771.457,81.1398
771.646,81.1753
771.834,81.2258
772.022,81.1847
772.21,81.2111
772.398,81.2146
772.586,81.3882
772.774,81.3546
772.962,81.4331
773.15,81.579
773.338,81.6232
773.526,81.7357
773.714,81.8245
773.902,81.839
774.09,81.8135
774.278,81.7825
774.465,81.9111
774.653,81.9437
774.841,81.8441
775.029,82.0049
775.217,81.9808
775.405,81.9236
775.592,82.0454
775.78,82.1051
775.968,82.1226
776.156,82.067
776.343,82.0947
776.531,82.1832
776.719,82.2718
776.907,82.2924
777.094,82.3523
777.282,82.4625
777.47,82.6074
777.657,82.6633
777.845,82.7544
778.032,82.8128
778.22,82.8668
778.408,83.0233
778.595,83.2122
778.783,83.3017
778.97,83.3824
779.158,83.4602
779.345,83.5574
779.533,83.5452
779.72,83.6273
779.908,83.6818
780.095,83.8205
780.282,83.965
780.47,84.1519
780.657,84.2083
780.845,84.2972
781.032,84.309
781.219,84.5629
781.407,84.6442
781.594,84.7379
781.781,84.8553
781.969,84.9118
782.156,84.9743
782.343,85.0414
782.53,85.1131
782.718,85.2252
782.905,85.2955
783.092,85.4006
783.279,85.5037
783.466,85.5604
783.653,85.5433
783.841,85.5541
784.028,85.6093
784.215,85.6468
784.402,85.6631
784.589,85.6829
784.776,85.721
784.963,85.6924
785.15,85.7397
785.337,85.6195
785.524,85.638
785.711,85.6482
785.898,85.5763
786.085,85.6698
786.272,85.5302
786.459,85.4691
786.646,85.3607
786.833,85.2453
787.02,85.1583
787.206,85.175
787.393,85.0391
787.58,84.8922
787.767,84.7654
787.954,84.6069
788.14,84.4003
788.327,84.2409
788.514,84.2955
788.701,84.0775
788.887,83.921
789.074,83.7785
789.261,83.6481
789.448,83.4967
789.634,83.3512
789.821,83.3443
790.008,83.1629
790.194,82.9477
790.381,82.8414
790.567,82.6698
790.754,82.4024
790.94,82.2537
791.127,81.9949
791.314,81.9439
791.5,81.8412
791.687,81.7946
791.873,81.6576
792.059,81.6203
792.246,81.5777
792.432,81.418
792.619,81.1582
792.805,80.8902
792.992,80.6343
793.178,80.4845
793.364,80.3691
793.551,80.2187
793.737,80.0608
793.923,79.8797
794.11,79.7953
794.296,79.6531
794.482,79.5027
794.668,79.346
794.855,79.1463
795.041,78.9019
795.227,78.6963
795.413,78.5494
795.599,78.4118
795.786,78.2242
795.972,77.9807
796.158,77.7174
796.344,77.6112
796.53,77.3469
796.716,77.1126
796.902,76.8562
797.088,76.6663
797.274,76.5882
797.46,76.4038
797.646,76.2769
797.832,76.143
798.018,75.9942
798.204,75.8298
798.39,75.6289
798.576,75.4685
798.762,75.2064
798.948,74.9918
799.134,74.9077
799.32,74.6477
799.506,74.4708
799.692,74.3255
799.877,74.2733
800.063,74.1221
800.249,73.9897
800.435,73.783
800.621,73.6163
800.806,73.4113
800.992,73.2267
801.178,73.0525
801.363,72.9084
801.549,72.8336
801.735,72.7629
801.92,72.5467
802.106,72.3804
802.292,72.1618
802.477,72.0803
802.663,71.9156
802.849,71.7544
803.034,71.4738
803.22,71.3324
803.405,71.14
803.591,70.9705
803.776,70.8036
803.962,70.5909
804.147,70.3885
804.333,70.22
804.518,70.0427
804.703,69.8363
804.889,69.6494
805.074,69.5159
805.26,69.433
805.445,69.3464
805.63,69.2944
805.816,68.9853
806.001,68.7972
806.186,68.6996
806.372,68.5569
806.557,68.3878
806.742,68.2645
806.927,68.1092
807.113,68.0165
807.298,67.8627
807.483,67.7194
807.668,67.6206
807.853,67.4946
808.039,67.2683
808.224,67.1386
808.409,66.9889
808.594,66.7574
808.779,66.6064
808.964,66.401
809.149,66.2412
809.334,65.9914
809.519,65.9765
809.704,65.7658
809.889,65.6578
810.074,65.4481
810.259,65.2339
810.444,65.0968
810.629,64.8519
810.814,64.7703
810.999,64.6081
811.184,64.3842
811.369,64.2214
811.554,64.1535
811.738,64.0675
811.923,63.9116
812.108,63.7643
812.293,63.683
812.478,63.4448
812.662,63.3394
812.847,63.3023
813.032,63.1358
813.217,63.0099
813.401,62.9447
813.586,62.8369
813.771,62.7694
813.955,62.6983
814.14,62.5467
814.325,62.4917
814.509,62.3829
814.694,62.2317
814.878,62.0976
815.063,62.002
815.248,61.7933
815.432,61.6935
815.617,61.6222
815.801,61.4589
815.986,61.3717
816.17,61.3055
816.355,61.2211
816.539,61.1174
816.723,60.9805
816.908,60.9466
817.092,60.7798
817.277,60.7759
817.461,60.6137
817.645,60.504
817.83,60.3842
818.014,60.3162
818.198,60.2673
818.383,60.0639
818.567,59.7747
818.751,59.6877
818.935,59.5783
819.12,59.3965
819.304,59.3549
819.488,59.293
819.672,59.1345
819.856,59.0197
820.041,58.9368
820.225,58.8577
820.409,58.7626
820.593,58.6574
820.777,58.5951
820.961,58.6091
821.145,58.6169
821.329,58.5146
821.513,58.483
821.697,58.3809
821.881,58.2823
822.065,58.2313
822.249,58.1828
822.433,57.9635
822.617,57.9185
822.801,57.7602
822.985,57.6135
823.169,57.524
823.353,57.3502
823.536,57.3017
823.72,57.2124
823.904,57.1798
824.088,57.0639
824.272,56.9744
824.456,56.8417
824.639,56.8193
824.823,56.7138
825.007,56.573
825.19,56.502
825.374,56.4701
825.558,56.4044
825.742,56.1833
825.925,56.0623
826.109,55.9704
826.292,55.8781
826.476,55.6627
826.66,55.5351
826.843,55.4124
827.027,55.1716
827.21,55.0734
827.394,54.9586
827.577,54.8351
827.761,54.7453
827.944,54.7375
828.128,54.451
828.311,54.3919
828.495,54.1898
828.678,54.0793
828.862,53.951
829.045,53.8432
829.228,53.6926
829.412,53.4935
829.595,53.3427
829.778,53.3321
829.962,53.2895
830.145,53.2791
830.328,53.1898
830.512,53.0117
830.695,52.8752
830.878,52.7216
831.061,52.6162
831.244,52.5272
831.428,52.4077
831.611,52.2274
831.794,52.0438
831.977,51.9278
832.16,51.8302
832.343,51.7524
832.526,51.6277
832.709,51.4824
832.893,51.3344
833.076,51.2949
833.259,51.2434
833.442,51.0524
833.625,50.9709
833.808,50.9169
833.991,50.805
834.174,50.6263
834.356,50.5238
834.539,50.3535
834.722,50.2681
834.905,50.0618
835.088,49.9549
835.271,49.8772
835.454,49.6975
835.637,49.5844
835.819,49.5143
836.002,49.4636
836.185,49.3309
836.368,49.1927
836.551,49.1414
836.733,48.9936
836.916,48.7911
837.099,48.5812
837.281,48.4108
837.464,48.2796
837.647,48.1973
837.829,48.0854
838.012,48.0039
838.195,47.9148
838.377,47.9187
838.56,47.688
838.742,47.5163
838.925,47.364
839.107,47.2742
839.29,47.169
839.472,47.0068
839.655,46.9516
839.837,46.846
840.02,46.7594
840.202,46.5738
840.385,46.4603
840.567,46.3074
840.749,46.2773
840.932,46.1815
841.114,46.1143
841.297,46.058
841.479,45.9629
841.661,45.8369
841.843,45.7401
842.026,45.6411
842.208,45.5317
842.39,45.4866
842.572,45.3468
842.755,45.3701
842.937,45.2841
843.119,45.182
843.301,45.0554
843.483,44.9065
843.666,44.7485
843.848,44.7021
844.03,44.6198
844.212,44.4726
844.394,44.3392
844.576,44.1939
844.758,44.0997
844.94,44.052
845.122,43.9779
845.304,43.876
845.486,43.7779
845.668,43.5976
845.85,43.5055
846.032,43.391
846.214,43.3804
846.396,43.1654
846.578,43.0808
846.759,43.0227
846.941,42.9575
847.123,42.9386
847.305,42.8094
847.487,42.7309
847.669,42.5557
847.85,42.4762
848.032,42.3731
848.214,42.3099
848.396,42.1428
848.577,42.0183
848.759,41.9038
848.941,41.8698
849.122,41.8003
849.304,41.6605
849.486,41.5547
849.667,41.4585
849.849,41.3512
850.03,41.2735
850.212,41.1356
850.394,41.097
850.575,41.0094
850.757,40.9045
850.938,40.8927
851.12,40.7596
851.301,40.6237
851.483,40.524
851.664,40.4018
851.845,40.2561
852.027,40.1898
852.208,40.0676
852.39,39.9359
852.571,39.8725
852.752,39.6953
852.934,39.5685
853.115,39.4562
853.296,39.3633
853.478,39.3164
853.659,39.174
853.84,39.1359
854.021,38.9812
854.203,38.9142
854.384,38.7389
854.565,38.6758
854.746,38.5539
854.927,38.42
855.108,38.4522
855.29,38.3711
855.471,38.3128
855.652,38.1616
855.833,38.0738
856.014,37.9275
856.195,37.9303
856.376,37.8564
856.557,37.7887
856.738,37.6903
856.919,37.5354
857.1,37.4119
857.281,37.2043
857.462,37.0657
857.643,36.8801
857.824,36.7268
858.005,36.575
858.185,36.422
858.366,36.23
858.547,36.1758
858.728,36.0969
858.909,36.0513
859.09,35.9665
859.27,35.8701
859.451,35.8045
859.632,35.7175
859.813,35.6535
859.993,35.5504
860.174,35.5052
860.355,35.3609
860.535,35.2315
860.716,35.213
860.897,35.1647
861.077,35.1457
861.258,35.0128
861.438,34.9617
861.619,34.9269
861.8,34.8602
861.98,34.7875
862.161,34.6717
862.341,34.6562
862.522,34.5908
862.702,34.4936
862.883,34.4859
863.063,34.441
863.243,34.4152
863.424,34.3257
863.604,34.3086
863.785,34.3426
863.965,34.3176
864.145,34.1505
864.326,34.1437
864.506,33.9815
864.686,33.9626
864.867,33.8478
865.047,33.7908
865.227,33.7107
865.407,33.6594
865.588,33.5789
865.768,33.5271
865.948,33.4442
866.128,33.3902
866.308,33.2357
866.488,33.1532
866.669,33.0335
866.849,33.0189
867.029,33.0175
867.209,33.0071
867.389,32.9802
867.569,32.8624
867.749,32.7448
867.929,32.6458
868.109,32.6451
868.289,32.6908
868.469,32.6739
868.649,32.6327
868.829,32.582
869.009,32.5388
869.189,32.4858
869.369,32.5514
869.548,32.4524
869.728,32.3821
869.908,32.389
870.088,32.3853
870.268,32.2777
870.448,32.3721
870.627,32.4157
870.807,32.3254
870.987,32.2616
871.167,32.1893
871.346,32.2129
871.526,32.1324
871.706,32.0379
871.885,32.0477
872.065,32.0161
872.245,31.9486
872.424,31.8484
872.604,31.7532
872.783,31.7449
872.963,31.6619
873.142,31.6782
873.322,31.6057
873.501,31.5859
873.681,31.5337
873.86,31.5121
874.04,31.4852
874.219,31.4559
874.399,31.4219
874.578,31.3043
874.758,31.1633
874.937,31.1649
875.116,31.1749
875.296,31.1392
875.475,31.1168
875.654,31.0512
875.834,31.0045
876.013,30.8376
876.192,30.7005
876.372,30.6824
876.551,30.6579
876.73,30.6445
876.909,30.6451
877.088,30.5701
877.268,30.4731
877.447,30.4287
877.626,30.3054
877.805,30.2675
877.984,30.2347
878.163,30.1802
878.342,30.1148
878.521,30.0417
878.7,29.8518
878.879,29.8092
879.059,29.7615
879.238,29.7071
879.417,29.7226
879.595,29.65
879.774,29.6199
879.953,29.5866
880.132,29.4662
880.311,29.4006
880.49,29.3225
880.669,29.2781
880.848,29.2174
881.027,29.1326
881.205,29.0489
881.384,28.9678
881.563,28.9523
881.742,28.9985
881.921,28.9861
882.099,28.9148
882.278,28.8355
882.457,28.7607
882.635,28.7126
882.814,28.7803
882.993,28.7251
883.171,28.687
883.35,28.7265
883.529,28.6866
883.707,28.6621
883.886,28.5557
884.064,28.5113
884.243,28.4928
884.422,28.3573
884.6,28.2684
884.779,28.2458
884.957,28.1474
885.136,28.1182
885.314,28.0736
885.492,28.0748
885.671,28.0677
885.849,27.9456
886.028,27.8886
886.206,27.7991
886.384,27.7001
886.563,27.6275
886.741,27.6206
886.919,27.5727
887.098,27.546
887.276,27.4635
887.454,27.4095
887.632,27.3263
887.811,27.284
887.989,27.2308
888.167,27.1929
888.345,27.189
888.523,27.1929
888.702,27.116
888.88,27.0364
889.058,27.0076
889.236,26.9665
889.414,26.9286
889.592,26.8334
889.77,26.8462
889.948,26.8128
890.126,26.8063
890.304,26.7782
890.482,26.8389
890.66,26.7464
890.838,26.7786
891.016,26.7234
891.194,26.6669
891.372,26.7175
891.55,26.6404
891.728,26.6683
891.905,26.6783
892.083,26.6551
892.261,26.5251
892.439,26.5607
892.617,26.609
892.794,26.5045
892.972,26.4986
893.15,26.4146
893.328,26.4562
893.505,26.5047
893.683,26.3723
893.861,26.382
894.038,26.4364
894.216,26.4185
894.394,26.4468
894.571,26.3557
894.749,26.2702
894.926,26.221
895.104,26.2243
895.281,26.1984
895.459,26.2094
895.637,26.2074
895.814,26.2021
895.992,26.1564
896.169,26.076
896.346,26.1263
896.524,26.0874
896.701,25.9555
896.879,25.9296
897.056,25.8223
897.233,25.8204
897.411,25.8086
897.588,25.7754
897.765,25.7373
897.943,25.7
898.12,25.6511
898.297,25.605
898.475,25.5319
898.652,25.4938
898.829,25.357
899.006,25.3226
899.183,25.2415
899.361,25.1647
899.538,25.1255
899.715,25.0426
899.892,24.9442
900.069,24.9169
900.246,24.75
900.423,24.7141
900.6,24.7384
900.777,24.7267
900.954,24.7135
901.131,24.6375
901.308,24.557
901.485,24.4912
901.662,24.4148
901.839,24.4101
902.016,24.3443
902.193,24.2593
902.37,24.2401
902.547,24.2684
902.724,24.2083
902.9,24.1405
903.077,24.0054
903.254,23.9756
903.431,24.0137
903.608,23.9267
903.784,23.8972
903.961,23.7659
904.138,23.7504
904.315,23.6608
904.491,23.6534
904.668,23.6109
904.845,23.5697
905.021,23.5175
905.198,23.3975
905.375,23.3704
905.551,23.2775
905.728,23.2066
905.904,23.1232
906.081,23.0955
906.257,23.0537
906.434,22.972
906.61,22.9205
906.787,22.8872
906.963,22.829
907.14,22.8534
907.316,22.821
907.493,22.7884
907.669,22.7474
907.845,22.7006
908.022,22.7307
908.198,22.7077
908.374,22.7006
908.551,22.6248
908.727,22.5777
908.903,22.4067
909.08,22.431
909.256,22.3515
909.432,22.3071
909.608,22.2089
909.785,22.1999
909.961,22.1188
910.137,22.0169
910.313,22.0143
910.489,22.0236
910.665,21.9024
910.841,21.8001
911.018,21.7809
911.194,21.6941
911.37,21.6672
911.546,21.6713
911.722,21.6658
911.898,21.7218
912.074,21.5926
912.25,21.5187
912.426,21.5105
912.602,21.3878
912.777,21.2784
912.953,21.2878
913.129,21.2297
913.305,21.2002
913.481,21.1097
913.657,21.071
913.833,20.93
914.008,20.9513
914.184,20.9092
914.36,20.9693
914.536,20.9803
914.712,20.9705
914.887,20.8908
915.063,20.804
915.239,20.8048
915.414,20.8374
915.59,20.8116
915.766,20.8207
915.941,20.835
916.117,20.877
916.292,20.8672
916.468,20.8509
916.644,20.8963
916.819,20.8368
916.995,20.8745
917.17,20.7653
917.346,20.6936
917.521,20.5976
917.697,20.5805
917.872,20.5287
918.048,20.4028
918.223,20.3667
918.398,20.2446
918.574,20.2037
918.749,20.1155
918.924,19.9816
919.1,19.8852
919.275,19.8071
919.45,19.7662
919.626,19.7533
919.801,19.6651
919.976,19.6508
920.151,19.6712
920.327,19.6684
920.502,19.6421
920.677,19.5653
920.852,19.464
921.027,19.4764
921.202,19.38
921.378,19.4165
921.553,19.3812
921.728,19.3971
921.903,19.4972
922.078,19.4122
922.253,19.2932
922.428,19.2198
922.603,19.1116
922.778,19.1809
922.953,19.1852
923.128,19.2427
923.303,19.1618
923.478,19.1936
923.652,19.1489
923.827,19.0686
924.002,18.9197
924.177,18.8698
924.352,18.8914
924.527,18.8451
924.702,18.7605
924.876,18.6648
925.051,18.7006
925.226,18.6293
925.401,18.6199
925.575,18.5492
925.75,18.482
925.925,18.3228
926.099,18.2295
926.274,18.1488
926.449,18.137
926.623,18.1139
926.798,17.9937
926.972,17.8922
927.147,17.8087
927.322,17.686
927.496,17.6485
927.671,17.6078
927.845,17.4773
928.02,17.4252
928.194,17.3787
928.368,17.3722
928.543,17.426
928.717,17.437
928.892,17.3023
929.066,17.3041
929.24,17.2436
929.415,17.1442
929.589,17.0661
929.763,17.0186
929.938,17.015
930.112,16.9663
930.286,16.8191
930.461,16.7869
930.635,16.7175
930.809,16.6019
930.983,16.4939
931.157,16.3792
931.332,16.3511
931.506,16.3665
931.68,16.3407
931.854,16.3056
932.028,16.324
932.202,16.2867
932.376,16.2314
932.55,16.1809
932.724,16.0782
932.898,16.0829
933.072,16.0698
933.246,16.0336
933.42,15.9351
933.594,15.9058
933.768,15.8777
933.942,15.8194
934.116,15.8068
934.29,15.7503
934.464,15.7157
934.638,15.6806
934.811,15.6126
934.985,15.55
935.159,15.4624
935.333,15.4946
935.507,15.5294
935.68,15.5062
935.854,15.355
936.028,15.2653
936.201,15.1641
936.375,15.1524
936.549,15.1522
936.722,15.1351
936.896,15.1076
937.07,15.0147
937.243,15.083
937.417,15.1121
937.59,15.0624
937.764,14.9719
937.938,14.989
938.111,14.9517
938.285,15.0234
938.458,14.98
938.631,14.9209
938.805,14.9256
938.978,14.8786
939.152,14.8849
939.325,14.8433
939.499,14.8623
939.672,14.7748
939.845,14.7337
940.019,14.6603
940.192,14.6304
940.365,14.4816
940.538,14.4816
940.712,14.5568
940.885,14.4936
941.058,14.4543
941.231,14.3636
941.405,14.3141
941.578,14.307
941.751,14.2226
941.924,14.2466
942.097,14.1867
942.27,14.0331
942.443,14.0094
942.617,13.9854
942.79,14.0119
942.963,13.9196
943.136,13.9375
943.309,13.9061
943.482,13.888
943.655,13.8144
943.828,13.8134
944.001,13.8619
944.173,13.779
944.346,13.8258
944.519,13.8605
944.692,13.8892
944.865,13.8578
945.038,13.8633
945.211,13.832
945.383,13.8829
945.556,13.8142
945.729,13.826
945.902,13.8336
946.075,13.8328
946.247,13.813
946.42,13.8356
946.593,13.8163
946.765,13.8554
946.938,13.7773
947.111,13.7922
947.283,13.7492
947.456,13.717
947.628,13.7788
947.801,13.9078
947.974,13.8682
948.146,13.7965
948.319,13.826
948.491,13.8737
948.664,13.8511
948.836,14.0152
949.009,13.944
949.181,13.942
949.353,13.8252
949.526,13.7244
949.698,13.6746
949.871,13.6942
950.043,13.7009
950.215,13.6667
950.388,13.6204
950.56,13.5956
950.732,13.5611
950.904,13.4721
951.077,13.4731
951.249,13.4978
951.421,13.5306
951.593,13.4503
951.766,13.448
951.938,13.329
952.11,13.3248
952.282,13.2799
952.454,13.3849
952.626,13.4548
952.798,13.4829
952.97,13.5542
953.142,13.61
953.314,13.6294
953.487,13.5931
953.659,13.6282
953.83,13.6137
954.002,13.6993
954.174,13.6734
954.346,13.757
954.518,13.7119
954.69,13.772
954.862,13.7676
955.034,13.6944
955.206,13.7233
955.378,13.759
955.549,13.6924
955.721,13.7484
955.893,13.6926
956.065,13.6376
956.236,13.5717
956.408,13.5709
956.58,13.5909
956.752,13.5289
956.923,13.5302
957.095,13.5104
957.267,13.4599
957.438,13.4101
957.61,13.3074
957.781,13.2683
957.953,13.2163
958.125,13.2506
958.296,13.2708
958.468,13.338
958.639,13.3109
958.811,13.4163
958.982,13.4749
959.154,13.4823
959.325,13.4868
959.496,13.511
959.668,13.5069
959.839,13.39
960.011,13.3946
960.182,13.3881
960.353,13.3926
960.525,13.2948
960.696,13.2875
960.867,13.3034
961.038,13.2461
961.21,13.2414
961.381,13.2441
961.552,13.3046
961.723,13.391
961.895,13.4173
962.066,13.434
962.237,13.3885
962.408,13.3618
962.579,13.4085
962.75,13.3555
962.921,13.4073
963.092,13.416
963.263,13.2895
963.434,13.2196
963.605,13.163
963.776,13.1159
963.947,13.1695
964.118,13.1047
964.289,13.0281
964.46,13.0187
964.631,12.9938
964.802,13.0048
964.973,12.9877
965.144,12.9671
965.315,12.9912
965.485,13.0118
965.656,13.0272
965.827,13.037
965.998,13.0038
966.169,12.9435
966.339,12.905
966.51,12.9804
966.681,13.0166
966.851,13.0266
967.022,13.0706
967.193,13.0637
967.363,13.0621
967.534,12.9743
967.705,12.9317
967.875,12.8279
968.046,12.872
968.216,12.905
968.387,12.917
968.557,12.8848
968.728,12.8381
968.898,12.8302
969.069,12.865
969.239,12.905
969.41,12.895
969.58,12.8506
969.751,12.8149
969.921,12.8161
970.091,12.8673
970.262,12.926
970.432,13.0166
970.602,13.0476
970.773,13.0829
970.943,13.0073
971.113,12.9148
971.283,12.9042
971.454,12.8999
971.624,12.951
971.794,12.8697
971.964,12.886
972.134,12.8669
972.305,12.8962
972.475,12.8153
972.645,12.7799
972.815,12.757
972.985,12.7426
973.155,12.7224
973.325,12.7487
973.495,12.8116
973.665,12.831
973.835,12.8952
974.005,12.854
974.175,12.8057
974.345,12.7762
974.515,12.8214
974.685,12.8243
974.855,12.9298
975.024,12.9243
975.194,12.8412
975.364,12.905
975.534,13.0073
975.704,13.1049
975.874,13.0602
976.043,13.0996
976.213,13.1717
976.383,13.1666
976.553,13.2514
976.722,13.2555
976.892,13.3135
977.062,13.3889
977.231,13.2618
977.401,13.4171
977.57,13.3392
977.74,13.3877
977.91,13.3574
978.079,13.37
978.249,13.3156
978.418,13.3753
978.588,13.3981
978.757,13.3965
978.927,13.297
979.096,13.329
979.266,13.2483
979.435,13.3421
979.604,13.411
979.774,13.3594
979.943,13.3993
980.113,13.4662
980.282,13.4444
980.451,13.3979
980.621,13.3997
980.79,13.3582
980.959,13.3643
981.128,13.3545
981.298,13.3563
981.467,13.3684
981.636,13.3321
981.805,13.3174
981.974,13.2705
982.143,13.1385
982.313,13.0433
982.482,13.0613
982.651,12.9641
982.82,12.8838
982.989,12.9484
983.158,12.8581
983.327,12.8491
983.496,12.8663
983.665,12.9186
983.834,12.9802
984.003,12.939
984.172,12.9313
984.341,12.8237
984.51,12.8078
984.679,12.7544
984.847,12.7466
985.016,12.797
985.185,12.8732
985.354,12.8648
985.523,12.8233
985.692,12.7399
985.86,12.7733
986.029,12.7499
986.198,12.7676
986.366,12.7605
986.535,12.7542
986.704,12.7572
986.873,12.693
987.041,12.6215
987.21,12.6478
987.378,12.6898
987.547,12.6533
987.716,12.6914
987.884,12.6413
988.053,12.6619
988.221,12.6623
988.39,12.8241
988.558,12.6782
988.727,12.6168
988.895,12.5585
989.064,12.626
989.232,12.6761
989.4,12.6052
989.569,12.5498
989.737,12.5316
989.905,12.5304
990.074,12.5098
990.242,12.5392
990.41,12.6042
990.579,12.498
990.747,12.5066
990.915,12.3941
991.083,12.3397
991.252,12.3456
991.42,12.4371
991.588,12.5066
991.756,12.5547
991.924,12.4923
992.092,12.4031
992.261,12.4165
992.429,12.3432
992.597,12.3169
992.765,12.3507
992.933,12.2678
993.101,12.1473
993.269,12.066
993.437,12.0283
993.605,12.0189
993.773,12.012
993.941,12.0715
994.109,12.1058
994.277,12.0815
994.444,11.9988
994.612,12.078
994.78,12.1096
994.948,12.1298
995.116,12.0913
995.284,12.1172
995.451,12.1453
995.619,12.0919
995.787,12.0444
995.955,12.0666
996.122,12.0984
996.29,12.1318
996.458,12.1606
996.625,12.1377
996.793,12.2197
996.961,12.2523
997.128,12.2478
997.296,12.3232
997.463,12.357
997.631,12.3888
997.798,12.4709
997.966,12.4206
998.133,12.4997
998.301,12.5445
998.468,12.5321
998.636,12.5624
998.803,12.5681
998.971,12.5691
999.138,12.5826
999.305,12.6015
999.473,12.6639
999.64,12.6963
999.807,12.6953
999.975,12.6694
1000.14,12.7686
1000.31,12.7621
1000.48,12.7381
1000.64,12.6879
1000.81,12.5885
1000.98,12.528
1001.15,12.4801
1001.31,12.4399
1001.48,12.4361
1001.65,12.3972
1001.81,12.4728
1001.98,12.4813
1002.15,12.4503
1002.32,12.4946
1002.48,12.5561
1002.65,12.6062
1002.82,12.6313
1002.98,12.5893
1003.15,12.4923
1003.32,12.5775
1003.48,12.6132
1003.65,12.6831
1003.82,12.6337
1003.98,12.6543
1004.15,12.5801
1004.32,12.628
1004.49,12.6284
1004.65,12.6321
1004.82,12.6678
1004.99,12.607
1005.15,12.5848
1005.32,12.5655
1005.49,12.4267
1005.65,12.3688
1005.82,12.3246
1005.99,12.3079
1006.15,12.2934
1006.32,12.3142
1006.49,12.4251
1006.65,12.4043
1006.82,12.4416
1006.99,12.4683
1007.15,12.4141
1007.32,12.3525
1007.49,12.2983
1007.65,12.1492
1007.82,12.1422
1007.98,12.2209
1008.15,12.2739
1008.32,12.3328
1008.48,12.2708
1008.65,12.2971
1008.82,12.3034
1008.98,12.2665
1009.15,12.1765
1009.32,12.106
1009.48,12.0379
1009.65,11.9169
1009.81,11.9003
1009.98,11.9289
1010.15,11.8769
1010.31,11.7553
1010.48,11.7096
1010.65,11.6739
1010.81,11.6399
1010.98,11.7279
1011.14,11.5215
1011.31,11.4775
1011.48,11.438
1011.64,11.4455
1011.81,11.492
1011.97,11.5484
1012.14,11.4671
1012.31,11.3581
1012.47,11.266
1012.64,11.3108
1012.8,11.2332
1012.97,11.2101
1013.14,11.1148
1013.3,11.074
1013.47,11.0102
1013.63,10.9522
1013.8,10.8998
1013.97,10.9179
1014.13,10.9185
1014.3,10.9375
1014.46,10.9226
1014.63,10.792
1014.79,10.7671
1014.96,10.7612
1015.13,10.8305
1015.29,10.8625
1015.46,10.8672
1015.62,10.9738
1015.79,10.9259
1015.95,11.1048
1016.12,11.1637
1016.29,11.1368
1016.45,11.1097
1016.62,11.0151
1016.78,10.9721
1016.95,11.0045
1017.11,11.0043
1017.28,10.8819
1017.44,10.8519
1017.61,10.8154
1017.78,10.7545
1017.94,10.8629
1018.11,10.9181
1018.27,10.8515
1018.44,10.8024
1018.6,10.7553
1018.77,10.663
1018.93,10.6834
1019.1,10.596
1019.26,10.6581
1019.43,10.6551
1019.59,10.7237
1019.76,10.7091
1019.92,10.6461
1020.09,10.6663
1020.25,10.5611
1020.42,10.5138
1020.59,10.5923
1020.75,10.4713
1020.92,10.3956
1021.08,10.4378
1021.25,10.4064
1021.41,10.3718
1021.58,10.4105
1021.74,10.3086
1021.91,10.1902
1022.07,10.2856
1022.24,10.3219
1022.4,10.3408
1022.57,10.3029
1022.73,10.2889
1022.89,10.1723
1023.06,10.1267
1023.22,10.1731
1023.39,10.2165
1023.55,10.2375
1023.72,10.2542
1023.88,10.2104
1024.05,10.2976
1024.21,10.2652
1024.38,10.3522
1024.54,10.4792
1024.71,10.4331
1024.87,10.4295
1025.04,10.4499
1025.2,10.4266
1025.37,10.5766
1025.53,10.6328
1025.7,10.6049
1025.86,10.502
1026.02,10.4474
1026.19,10.372
1026.35,10.4372
1026.52,10.4674
1026.68,10.5265
1026.85,10.5723
1027.01,10.5901
1027.18,10.5444
1027.34,10.4973
1027.5,14.0775
1027.67,-8.6959
1027.83,6.13139
1028,18.3373
1028.16,13.1764
1028.33,23.0476
1028.49,17.5591
1028.65,12.3163
1028.82,-3.8627
1028.98,-0.217312
1029.15,11.3742
1029.31,4.61589
1029.48,-0.504028
1029.64,12.1934
1029.8,6.74578
1029.97,6.21331
1030.13,4.28822
1030.3,10.555
1030.46,12.8897
1030.62,3.05944
1030.79,17.3133
1030.95,6.00851
1031.12,-9.1055
1031.28,9.81773
1031.44,10.0225
1031.61,21.4092
1031.77,3.30519
1031.94,14.9786
1032.1,25.7509
1032.26,-3.00255
1032.43,26.6111
1032.59,20.1805
1032.76,-1.48705
1032.92,3.63287
1033.08,2.40409
1033.25,1.42106
1033.41,16.576
1033.57,11.7428
1033.74,-13.0786
1033.9,11.9067
1034.07,-0.708825
1034.23,1.50298
1034.39,18.1734
1034.56,16.1255
1034.72,-2.30624
1034.88,0.601875
1035.05,11.4971
1035.21,1.99449
1035.37,19.9757
1035.54,-4.88668
1035.7,20.1805
1035.86,18.4602
1036.03,13.7498
1036.19,7.44209
1036.35,0.560916
1036.52,10.596
1036.68,3.42807
1036.84,2.93656
1037.01,16.2484
1037.17,-4.31325
1037.33,11.9067
1037.5,16.4532
1037.66,15.0196
1037.82,5.55796
1037.99,20.672
1038.15,1.5849
1038.31,8.1384
1038.48,11.1694
1038.64,12.2343
1038.8,10.3912
1038.97,12.5211
1039.13,9.94061
1039.29,-7.7948
1039.46,2.85464
1039.62,9.98157
1039.78,21.614
1039.95,14.1185
1040.11,15.6749
1040.27,9.28526
1040.43,6.95058
1040.6,15.5111
1040.76,10.6369
1040.92,24.9727
1041.09,-0.626906
1041.25,16.2484
1041.41,23.4572
1041.57,17.8048
1041.74,30.7889
1041.9,16.3303
1042.06,17.0675
1042.23,-5.70587
1042.39,13.7089
1042.55,-3.41214
1042.71,18.5421
1042.88,6.00851
1043.04,19.4432
1043.2,19.1565
1043.36,12.0705
1043.53,0.028444
1043.69,6.50003
EndSpectrumFile,DIFF DATA
